timestamp,esp_timestamp,accel_x,accel_y,accel_z,gyro_x,gyro_y,gyro_z,temperature
2025-09-11 14:35:02.557,839917,-7.24485445022583,0.5363011956214905,5.4013190269470215,0.026912709698081017,0.03437365964055061,0.031176110729575157,35.79176330566406
2025-09-11 14:35:02.574,839937,-7.364564418792725,0.5506663918495178,5.427655220031738,0.015454824082553387,0.026379786431789398,0.039436448365449905,35.79470443725586
2025-09-11 14:35:02.639,839957,-7.249642848968506,0.5434837937355042,5.327098846435547,0.0189188364893198,0.021849922835826874,0.061019908636808395,35.797645568847656
2025-09-11 14:35:02.639,839977,-7.156269073486328,0.6200982332229614,5.193023681640625,0.019718224182724953,0.0189188364893198,0.037304747849702835,35.80352783203125
2025-09-11 14:35:02.639,839997,-7.29034423828125,0.5722141861915588,5.327098846435547,0.0026646247133612633,0.01811944879591465,-0.012257273308932781,35.779998779296875
2025-09-11 14:35:02.654,840017,-7.254431247711182,0.5051765441894531,5.377377033233643,-0.017586523666977882,0.0023981621488928795,-0.02717917412519455,35.80646896362305
2025-09-11 14:35:02.676,840039,-7.201758861541748,0.4836287498474121,5.410895824432373,0.012257273308932781,0.0021316998172551394,0.021849922835826874,35.788822174072266
2025-09-11 14:35:02.748,840058,-7.218518257141113,0.646434485912323,5.413290023803711,0.025580398738384247,0.026646247133612633,0.069280244410038,35.80352783203125
2025-09-11 14:35:02.748,840078,-7.16584587097168,0.6967126727104187,5.281609058380127,0.02371516078710556,0.03490658476948738,0.06528330594301224,35.79470443725586
2025-09-11 14:35:02.748,840098,-7.2137298583984375,0.6416460275650024,5.3127336502075195,-0.003197549842298031,0.014122511260211468,0.017053598538041115,35.81235122680664
2025-09-11 14:35:02.756,840118,-7.216124057769775,0.5123591423034668,5.3797712326049805,-0.012257273308932781,0.0023981621488928795,-0.01039203628897667,35.83000183105469
2025-09-11 14:35:02.775,840138,-7.29034423828125,0.4836287498474121,5.396530628204346,-0.0005329249543137848,0.014655436389148235,0.00799387414008379,35.80646896362305
2025-09-11 14:35:02.796,840158,-7.331045627593994,0.6272808313369751,5.370194435119629,0.006661561783403158,0.03064318373799324,0.045032158493995667,35.79470443725586
2025-09-11 14:35:02.846,840178,-7.2568254470825195,0.6751648783683777,5.353435039520264,0.0037304747384041548,0.0173200611025095,0.05649004504084587,35.80058670043945
2025-09-11 14:35:02.846,840198,-7.201758861541748,0.6057330369949341,5.3342814445495605,-0.0007993874605745077,0.0,0.03890352323651314,35.81235122680664
2025-09-11 14:35:02.863,840218,-7.19936466217041,0.5913678407669067,5.327098846435547,-0.002931087277829647,0.0010658499086275697,0.023448698222637177,35.797645568847656
2025-09-11 14:35:02.875,840238,-7.225700855255127,0.5722141861915588,5.353435039520264,-0.0053292494267225266,0.010658498853445053,0.011457886546850204,35.78588104248047
2025-09-11 14:35:02.899,840258,-7.225700855255127,0.6200982332229614,5.377377033233643,0.0005329249543137848,0.02504747360944748,0.010658498853445053,35.80646896362305
2025-09-11 14:35:02.949,840278,-7.230489253997803,0.6248866319656372,5.389348030090332,0.0021316998172551394,0.02504747360944748,0.017852986231446266,35.79176330566406
2025-09-11 14:35:02.949,840298,-7.280767440795898,0.6009446382522583,5.3342814445495605,0.0053292494267225266,0.019984684884548187,0.02291577309370041,35.797645568847656
2025-09-11 14:35:02.957,840318,-7.247248649597168,0.5889736413955688,5.351040840148926,0.030110260471701622,0.02238284796476364,0.03890352323651314,35.80058670043945
2025-09-11 14:35:02.975,840338,-7.232883453369141,0.6847416758537292,5.353435039520264,0.010924961417913437,0.021849922835826874,0.0362388975918293,35.797645568847656
2025-09-11 14:35:02.995,840358,-7.2113356590271,0.629675030708313,5.293580055236816,-0.013856049627065659,0.019984684884548187,0.02158346027135849,35.779998779296875
2025-09-11 14:35:03.056,840378,-7.264008045196533,0.608127236366272,5.374982833862305,-0.010924961417913437,0.030110260471701622,0.023448698222637177,35.809410095214844
2025-09-11 14:35:03.056,840398,-7.280767440795898,0.6033388376235962,5.365406036376953,0.0,0.044232770800590515,0.044232770800590515,35.80058670043945
2025-09-11 14:35:03.056,840418,-7.2568254470825195,0.6440402865409851,5.353435039520264,0.006128636654466391,0.04689739644527435,0.06634915620088577,35.81235122680664
2025-09-11 14:35:03.076,840438,-7.261613845825195,0.6177040338516235,5.322310447692871,0.007727412041276693,0.050361406058073044,0.07034609466791153,35.80058670043945
2025-09-11 14:35:03.095,840458,-7.295132637023926,0.608127236366272,5.3127336502075195,0.013856049627065659,0.05382541939616203,0.08340275287628174,35.797645568847656
2025-09-11 14:35:03.155,840480,-7.3669586181640625,0.5027823448181152,5.284003257751465,0.05728943273425102,0.062352221459150314,0.11244716495275497,35.77411651611328
2025-09-11 14:35:03.155,840499,-7.5632829666137695,0.6488286852836609,5.341464042663574,0.12443797290325165,0.05995405837893486,0.17213475704193115,35.79176330566406
2025-09-11 14:35:03.155,840519,-7.326257228851318,0.7326257228851318,5.250484466552734,0.1036539077758789,0.060220520943403244,0.22462786734104156,35.80058670043945
2025-09-11 14:35:03.178,840539,-7.307103633880615,0.7637503147125244,5.329493045806885,0.09965696930885315,0.08286983519792557,0.2848483920097351,35.80646896362305
2025-09-11 14:35:03.196,840559,-7.376535415649414,0.6200982332229614,5.394136428833008,0.12976722419261932,0.0873996913433075,0.3511975407600403,35.79470443725586
2025-09-11 14:35:03.253,840579,-7.189787864685059,1.0965443849563599,5.231330871582031,0.17213475704193115,0.06128636747598648,0.36505359411239624,35.809410095214844
2025-09-11 14:35:03.253,840599,-7.046135425567627,1.3000515699386597,5.035006046295166,0.10312097519636154,0.038637056946754456,0.2454119473695755,35.80058670043945
2025-09-11 14:35:03.256,840619,-7.022193431854248,1.3623007535934448,5.128379821777344,-0.009592648595571518,0.036505360156297684,0.08420214802026749,35.809410095214844
2025-09-11 14:35:03.278,840639,-7.156269073486328,1.1516109704971313,5.286397457122803,-0.05355895683169365,0.05222664400935173,-0.004263399634510279,35.80352783203125
2025-09-11 14:35:03.298,840659,-7.280767440795898,0.9481038451194763,5.398924827575684,-0.05222664400935173,0.0460980087518692,0.014388973824679852,35.80352783203125
2025-09-11 14:35:03.357,840679,-7.3023152351379395,0.9265560507774353,5.386953830718994,-0.003996937070041895,0.03250842168927193,0.09192955493927002,35.80058670043945
2025-09-11 14:35:03.357,840699,-7.1921820640563965,1.0103530883789062,5.25527286529541,-0.003197549842298031,0.02797855995595455,0.12577028572559357,35.80646896362305
2025-09-11 14:35:03.357,840719,-7.220912456512451,1.1276689767837524,5.228936672210693,-0.0053292494267225266,0.015721285715699196,0.11351301521062851,35.82706069946289
2025-09-11 14:35:03.376,840739,-7.137115478515625,1.1635819673538208,5.286397457122803,-0.02238284796476364,0.0023981621488928795,0.06794793158769608,35.81235122680664
2025-09-11 14:35:03.396,840759,-7.074865818023682,1.158793568611145,5.262455463409424,-0.020517610013484955,0.0021316998172551394,0.026379786431789398,35.809410095214844
2025-09-11 14:35:03.459,840779,-7.249642848968506,1.0462661981582642,5.339069843292236,0.007194486912339926,0.011990811675786972,0.022649310529232025,35.788822174072266
2025-09-11 14:35:03.459,840799,-7.304709434509277,1.1492167711257935,5.288791656494141,0.018385911360383034,0.025580398738384247,0.02797855995595455,35.80352783203125
2025-09-11 14:35:03.459,840819,-7.117961883544922,1.115697979927063,5.171475887298584,0.019718224182724953,0.024248085916042328,0.011457886546850204,35.818233489990234
2025-09-11 14:35:03.483,840839,-7.194576263427734,1.0797849893569946,5.2265424728393555,-0.02238284796476364,0.03757121041417122,-0.03064318373799324,35.797645568847656
2025-09-11 14:35:03.497,840859,-7.2137298583984375,1.1492167711257935,5.236119270324707,-0.02291577309370041,0.058088820427656174,-0.0543583482503891,35.809410095214844
2025-09-11 14:35:03.567,840879,-7.113173484802246,1.1492167711257935,5.252878665924072,-0.050361406058073044,0.08260336518287659,-0.0740765631198883,35.80058670043945
2025-09-11 14:35:03.567,840899,-7.261613845825195,1.0271124839782715,5.2672438621521,-0.06155283376574516,0.09459418058395386,-0.1036539077758789,35.80646896362305
2025-09-11 14:35:03.567,840920,-7.371747016906738,1.0127472877502441,5.152322292327881,-0.0362388975918293,0.08340275287628174,-0.0823369100689888,35.79470443725586
2025-09-11 14:35:03.577,840939,-7.340622425079346,1.0223240852355957,5.125985622406006,-0.04156814515590668,0.09139663726091385,-0.05649004504084587,35.80058670043945
2025-09-11 14:35:03.612,840959,-7.228095054626465,1.0319008827209473,5.17626428604126,-0.07274425029754639,0.09779173135757446,-0.06048698350787163,35.79470443725586
2025-09-11 14:35:03.661,840979,-7.3669586181640625,0.8379706144332886,5.257667064666748,-0.06181929633021355,0.10551914572715759,-0.055424198508262634,35.80352783203125
2025-09-11 14:35:03.661,840999,-7.261613845825195,1.0462661981582642,5.092466831207275,-0.04023583605885506,0.10285452008247375,-0.04183461144566536,35.81529235839844
2025-09-11 14:35:03.661,841019,-7.230489253997803,0.9911994934082031,5.1116204261779785,-0.0543583482503891,0.11537826061248779,-0.07167840749025345,35.81235122680664
2025-09-11 14:35:03.678,841039,-7.38132381439209,0.9074024558067322,5.149928092956543,-0.08953139185905457,0.13722817599773407,-0.12124042212963104,35.79176330566406
2025-09-11 14:35:03.697,841060,-7.407660007476807,0.8355764150619507,5.061342239379883,-0.07487595826387405,0.11058192700147629,-0.09752526879310608,35.79176330566406
2025-09-11 14:35:03.717,841079,-7.453149795532227,0.7350199222564697,5.240907669067383,-0.045032158493995667,0.06714854389429092,-0.045032158493995667,35.81235122680664
2025-09-11 14:35:03.762,841099,-7.173028469085693,0.8762778043746948,5.147533416748047,-0.0034640124067664146,0.06794793158769608,-0.027712099254131317,35.818233489990234
2025-09-11 14:35:03.763,841119,-7.319074630737305,0.8068459630012512,5.171475887298584,0.016520673409104347,0.06155283376574516,-0.04369984567165375,35.80646896362305
2025-09-11 14:35:03.775,841139,-7.321468830108643,1.0295066833496094,5.020640850067139,-0.0021316998172551394,0.0378376729786396,-0.09699234366416931,35.79470443725586
2025-09-11 14:35:03.797,841159,-7.393294811248779,0.9289502501487732,5.037400245666504,-0.05728943273425102,-0.009326186962425709,-0.16920366883277893,35.80058670043945
2025-09-11 14:35:03.874,841179,-7.479485988616943,0.8667010068893433,5.224148273468018,-0.07327718287706375,-0.0037304747384041548,-0.14921899139881134,35.80646896362305
2025-09-11 14:35:03.879,841199,-7.357381820678711,0.6536170840263367,5.109226226806641,-0.0007993874605745077,-0.003996937070041895,-0.06688208132982254,35.82411575317383
2025-09-11 14:35:03.879,841219,-7.386112213134766,0.569819986820221,5.051765441894531,0.06634915620088577,0.03837059438228607,-0.02238284796476364,35.81529235839844
2025-09-11 14:35:03.879,841239,-7.508216381072998,0.6560112833976746,5.123591423034668,0.061019908636808395,0.0626186802983284,0.0053292494267225266,35.809410095214844
2025-09-11 14:35:03.897,841259,-7.237671852111816,0.9026140570640564,4.900930881500244,0.014388973824679852,0.09539356082677841,-0.039969369769096375,35.80058670043945
2025-09-11 14:35:03.916,841279,-7.769184589385986,0.7948749661445618,4.853046894073486,-0.07594180852174759,0.18359264731407166,-0.10605207085609436,35.78293991088867
2025-09-11 14:35:03.964,841299,-7.601590633392334,0.7134721279144287,4.73573112487793,-0.1417580395936966,0.16120979189872742,-0.07354364544153214,35.78588104248047
2025-09-11 14:35:03.964,841319,-7.417236804962158,0.5291185975074768,4.963180065155029,-0.09992342442274094,0.15081775188446045,-0.006128636654466391,35.79470443725586
2025-09-11 14:35:03.976,841339,-7.146692276000977,0.8427590131759644,4.766855716705322,-0.07967228442430496,0.16733844578266144,-0.002931087277829647,35.79176330566406
2025-09-11 14:35:04.002,841359,-7.601590633392334,0.8068459630012512,4.989516258239746,-0.11111485213041306,0.18066155910491943,-0.03570597246289253,35.80352783203125
2025-09-11 14:35:04.016,841379,-7.5417351722717285,0.6991068720817566,4.821922302246094,-0.1811944842338562,0.16707198321819305,-0.04796324670314789,35.80352783203125
2025-09-11 14:35:04.071,841399,-7.620744228363037,0.5674257874488831,5.061342239379883,-0.1500183790922165,0.2107718288898468,-0.030110260471701622,35.81235122680664
2025-09-11 14:35:04.073,841419,-8.001421928405762,0.3232172429561615,5.173870086669922,-0.007194486912339926,0.2472771853208542,0.03570597246289253,35.779998779296875
2025-09-11 14:35:04.076,841439,-7.587224960327148,0.5291185975074768,4.845864295959473,0.07780704647302628,0.18092802166938782,0.09299540519714355,35.80352783203125
2025-09-11 14:35:04.108,841459,-7.687781810760498,0.6200982332229614,4.833893299102783,0.05622358247637749,0.15588054060935974,0.06155283376574516,35.80058670043945
2025-09-11 14:35:04.119,841479,-7.850587368011475,0.6033388376235962,4.843470096588135,0.03570597246289253,0.09539356082677841,0.03224195912480354,35.77411651611328
2025-09-11 14:35:04.175,841500,-7.879317760467529,0.48602294921875,4.898536682128906,0.06155283376574516,-0.07594180852174759,0.03490658476948738,35.788822174072266
2025-09-11 14:35:04.176,841520,-7.515398979187012,0.5530605912208557,4.888959884643555,0.13456355035305023,-0.2059755027294159,0.056756507605314255,35.78293991088867
2025-09-11 14:35:04.178,841540,-7.580042362213135,0.2106897532939911,5.0900726318359375,0.3559938669204712,-0.24754364788532257,0.14122511446475983,35.771175384521484
2025-09-11 14:35:04.197,841560,-7.474697589874268,0.5889736413955688,5.260061264038086,0.6024717092514038,-0.18332618474960327,0.18012863397598267,35.80058670043945
2025-09-11 14:35:04.291,841580,-7.328651428222656,1.3407529592514038,4.683058738708496,0.5529096722602844,-0.06714854389429092,0.08846554160118103,35.797645568847656
2025-09-11 14:35:04.292,841600,-6.897695064544678,1.5298948287963867,4.639962673187256,0.5150719881057739,0.03330780938267708,-0.08500153571367264,35.79176330566406
2025-09-11 14:35:04.292,841620,-7.333439826965332,1.4077905416488647,4.78122091293335,0.4527197480201721,0.1284349113702774,-0.243813157081604,35.79176330566406
2025-09-11 14:35:04.292,841640,-7.718906402587891,1.2641384601593018,4.687847137451172,0.3146921992301941,0.08366922289133072,-0.3421378433704376,35.797645568847656
2025-09-11 14:35:04.297,841660,-7.6566572189331055,0.42377370595932007,4.707000732421875,0.24594487249851227,0.09539356082677841,-0.17080244421958923,35.80058670043945
2025-09-11 14:35:04.323,841680,-7.908048152923584,0.9624691009521484,4.790797710418701,0.4596477746963501,0.27792036533355713,0.19691577553749084,35.79470443725586
2025-09-11 14:35:04.382,841700,-7.733271598815918,1.3263877630233765,4.338293552398682,0.4612465500831604,0.3591914176940918,0.3594578802585602,35.81235122680664
2025-09-11 14:35:04.382,841720,-7.627926826477051,1.6376339197158813,4.3406877517700195,0.2387503832578659,0.36025726795196533,0.19158652424812317,35.80352783203125
2025-09-11 14:35:04.382,841740,-7.714118003845215,1.558625340461731,4.302380561828613,0.08500153571367264,0.2787197530269623,0.023981623351573944,35.80352783203125
2025-09-11 14:35:04.397,841760,-7.608773231506348,1.2018892765045166,4.522646903991699,0.08926492929458618,0.3703828454017639,0.07860642671585083,35.79470443725586
2025-09-11 14:35:04.421,841780,-7.7883381843566895,0.9983820915222168,4.929661273956299,0.05355895683169365,0.29923737049102783,0.12550382316112518,35.80646896362305
2025-09-11 14:35:04.484,841802,-7.65186882019043,0.9864110946655273,4.486733913421631,-0.006661561783403158,0.04156814515590668,0.038637056946754456,35.788822174072266
2025-09-11 14:35:04.484,841821,-7.73087739944458,1.4269442558288574,4.225766181945801,-0.1137794777750969,-0.10765083879232407,-0.2323552817106247,35.78588104248047
2025-09-11 14:35:04.484,841841,-8.092401504516602,1.0271124839782715,4.570530891418457,-0.3141592741012573,0.07460949569940567,-0.46710872650146484,35.797645568847656
2025-09-11 14:35:04.499,841861,-6.691793918609619,1.1659762859344482,4.448426723480225,-0.16440735757350922,0.2057090401649475,-0.5100091695785522,35.797645568847656
2025-09-11 14:35:04.518,841881,-7.781155586242676,0.31603461503982544,4.8722004890441895,-0.04023583605885506,0.18172740936279297,-0.4156814515590668,35.80058670043945
2025-09-11 14:35:04.583,841901,-7.905653953552246,0.9385270476341248,4.484339714050293,0.0460980087518692,0.21876570582389832,-0.07141194492578506,35.80352783203125
2025-09-11 14:35:04.585,841921,-7.103596210479736,0.8044517636299133,4.228160381317139,-0.05915467068552971,0.1859908103942871,0.2011791616678238,35.79470443725586
2025-09-11 14:35:04.585,841941,-7.996633529663086,0.7613561153411865,4.288015365600586,0.04050229862332344,0.18199387192726135,-0.06661561876535416,35.81235122680664
2025-09-11 14:35:04.599,841961,-7.970297336578369,0.4692635238170624,4.170699596405029,0.15934456884860992,0.20171210169792175,-0.30723124742507935,35.80352783203125
2025-09-11 14:35:04.636,841981,-8.501810073852539,1.0342950820922852,4.321534156799316,0.23315466940402985,0.22329555451869965,-0.339206725358963,35.80352783203125
2025-09-11 14:35:04.637,842001,-8.53532886505127,0.4620809257030487,4.5825018882751465,0.3146921992301941,0.08979785442352295,0.08580091595649719,35.80058670043945
2025-09-11 14:35:04.689,842021,-8.216899871826172,-0.06224924325942993,4.491522312164307,0.4545849859714508,-0.061019908636808395,0.48336294293403625,35.80352783203125
2025-09-11 14:35:04.690,842041,-7.790732383728027,0.849941611289978,3.971980571746826,0.46204593777656555,-0.03916998580098152,0.4596477746963501,35.79176330566406
2025-09-11 14:35:04.699,842061,-7.931990146636963,1.316810965538025,3.9025487899780273,0.2504747211933136,-0.2025114744901657,0.1665390431880951,35.79470443725586
2025-09-11 14:35:04.717,842081,-8.08043098449707,1.0606313943862915,4.307168960571289,0.1430903524160385,-0.27925267815589905,-0.02717917412519455,35.779998779296875
2025-09-11 14:35:04.738,842101,-8.20492935180664,0.9169792532920837,4.369418144226074,0.18972128629684448,-0.2574027478694916,0.12603674829006195,35.80352783203125
2025-09-11 14:35:04.790,842121,-7.903259754180908,0.8643068075180054,4.4723687171936035,0.24008269608020782,-0.22649310529232025,0.35972434282302856,35.80646896362305
2025-09-11 14:35:04.790,842141,-7.089231014251709,1.6543933153152466,4.347870349884033,0.1596110314130783,-0.19744868576526642,0.2142358273267746,35.80352783203125
2025-09-11 14:35:04.799,842161,-7.134721279144287,1.86508309841156,4.405331134796143,0.04050229862332344,-0.10258805006742477,-0.11777641624212265,35.79470443725586
2025-09-11 14:35:04.834,842181,-7.592013359069824,1.7812861204147339,4.434061527252197,-0.013056661002337933,0.016520673409104347,-0.29577335715293884,35.80646896362305
2025-09-11 14:35:04.839,842201,-7.805097579956055,1.3407529592514038,4.235342979431152,-0.065816231071949,0.07487595826387405,-0.2504747211933136,35.788822174072266
2025-09-11 14:35:04.895,842221,-7.943961143493652,0.8403648138046265,4.575319290161133,-0.09406124800443649,0.09352833032608032,-0.07460949569940567,35.80646896362305
2025-09-11 14:35:04.895,842243,-7.637503623962402,1.139639973640442,4.67827033996582,-0.03277488425374031,0.14895252883434296,0.058888208121061325,35.779998779296875
2025-09-11 14:35:04.905,842262,-7.51779317855835,1.556231141090393,4.745307922363281,-0.08793261647224426,0.29737213253974915,0.09539356082677841,35.78588104248047
2025-09-11 14:35:04.923,842282,-7.800309181213379,0.9792284965515137,4.5154643058776855,-0.171335369348526,0.35173046588897705,0.20224502682685852,35.797645568847656
2025-09-11 14:35:04.940,842302,-8.190564155578613,0.8188169598579407,4.1180267333984375,-0.1284349113702774,0.23342111706733704,0.36318835616111755,35.809410095214844
2025-09-11 14:35:04.996,842322,-7.931990146636963,1.3527239561080933,4.046200752258301,-0.031709033995866776,0.11351301521062851,0.3575926423072815,35.788822174072266
2025-09-11 14:35:04.998,842342,-7.661445617675781,1.7860745191574097,4.28322696685791,-0.08446860313415527,0.12044104188680649,0.17906278371810913,35.81235122680664
2025-09-11 14:35:04.999,842362,-7.857769966125488,1.5322890281677246,4.1874589920043945,-0.16680550575256348,0.08686677366495132,0.06181929633021355,35.809410095214844
2025-09-11 14:35:05.033,842382,-8.092401504516602,1.0630255937576294,4.364629745483398,-0.09299540519714355,0.08100459724664688,0.135096475481987,35.79470443725586
2025-09-11 14:35:05.041,842402,-7.754819393157959,1.4867992401123047,4.1611223220825195,-0.017053598538041115,0.10072281211614609,0.21690045297145844,35.788822174072266
2025-09-11 14:35:05.097,842422,-7.417236804962158,2.2433669567108154,4.398148536682129,-0.046364475041627884,0.1548146903514862,0.0173200611025095,35.77705764770508
2025-09-11 14:35:05.097,842442,-7.879317760467529,1.8267759084701538,4.355052947998047,-0.1449555903673172,0.13642878830432892,-0.1252373605966568,35.80646896362305
2025-09-11 14:35:05.098,842462,-8.432378768920898,0.304063618183136,3.823540210723877,-0.1417580395936966,0.04210107401013374,-0.047696780413389206,35.788822174072266
2025-09-11 14:35:05.119,842482,-8.02536392211914,1.091755986213684,3.914519786834717,-0.025313934311270714,-0.0021316998172551394,0.09113016724586487,35.80352783203125
2025-09-11 14:35:05.143,842502,-7.864952564239502,1.659181833267212,4.019864559173584,-0.07460949569940567,0.05355895683169365,0.052759572863578796,35.79176330566406
2025-09-11 14:35:05.199,842522,-7.999027729034424,1.316810965538025,4.228160381317139,-0.1137794777750969,0.08153752237558365,0.04529862105846405,35.80058670043945
2025-09-11 14:35:05.199,842542,-7.939172744750977,1.2282254695892334,4.180276393890381,-0.10765083879232407,0.07167840749025345,0.12337213009595871,35.80646896362305
2025-09-11 14:35:05.200,842562,-7.501033782958984,1.6519991159439087,4.268861770629883,-0.11990811675786972,0.05835527926683426,0.102055124938488,35.788822174072266
2025-09-11 14:35:05.219,842582,-7.618350028991699,1.50355863571167,4.304774761199951,-0.24461255967617035,0.08926492929458618,-0.01012557465583086,35.771175384521484
2025-09-11 14:35:05.239,842602,-7.7428483963012695,1.7190368175506592,4.630385875701904,-0.18039509654045105,0.24407963454723358,-0.05249311029911041,35.80646896362305
2025-09-11 14:35:05.301,842622,-7.534552574157715,2.207453966140747,4.836287498474121,-0.15055130422115326,0.4068881869316101,-0.026646247133612633,35.79176330566406
2025-09-11 14:35:05.301,842642,-7.659051418304443,2.3319525718688965,4.568136692047119,-0.3410719633102417,0.41275039315223694,-0.04822970926761627,35.79470443725586
2025-09-11 14:35:05.305,842662,-7.60637903213501,2.5258827209472656,4.436455726623535,-0.3378744125366211,0.2984379827976227,-0.06741500645875931,35.788822174072266
2025-09-11 14:35:05.320,842683,-7.141903877258301,-0.7829039692878723,3.0813376903533936,-0.1945176124572754,0.6733506917953491,-0.24807657301425934,35.78588104248047
2025-09-11 14:35:05.340,842703,-8.978256225585938,1.5298948287963867,3.4117374420166016,-0.09246248006820679,0.8281654119491577,-0.7663460969924927,35.788822174072266
2025-09-11 14:35:05.413,842723,-8.848969459533691,-0.7948749661445618,3.0142998695373535,0.015454824082553387,0.6373782753944397,-0.6507014036178589,35.788822174072266
2025-09-11 14:35:05.413,842743,-9.026140213012695,-0.22744916379451752,3.066972494125366,0.15454822778701782,0.38104134798049927,-0.09166309237480164,35.79176330566406
2025-09-11 14:35:05.413,842763,-8.147468566894531,1.1779472827911377,3.4955344200134277,0.28751301765441895,0.17213475704193115,-0.03144257143139839,35.79470443725586
2025-09-11 14:35:05.420,842783,-8.1139497756958,2.2385785579681396,3.648763418197632,0.25287288427352905,0.12710259854793549,-0.5299938917160034,35.788822174072266
2025-09-11 14:35:05.441,842803,-7.718906402587891,0.6416460275650024,3.7421371936798096,0.20197856426239014,0.277120977640152,-0.6541653871536255,35.80058670043945
2025-09-11 14:35:05.460,842823,-10.663774490356445,10.465055465698242,9.971850395202637,0.06848085671663284,-0.21130475401878357,-0.18332618474960327,35.779998779296875
2025-09-11 14:35:05.506,842843,-10.371682167053223,0.524330198764801,2.542642116546631,1.279019832611084,0.29204288125038147,-0.8955804109573364,35.78588104248047
2025-09-11 14:35:05.506,842863,-7.326257228851318,-0.3016694188117981,3.6798880100250244,0.42234301567077637,0.33680859208106995,-1.6891056299209595,35.80058670043945
2025-09-11 14:35:05.523,842883,-8.355764389038086,0.48602294921875,4.627991676330566,0.5156049132347107,0.784199059009552,-1.296872854232788,35.81235122680664
2025-09-11 14:35:05.540,842903,-8.341399192810059,-0.8092401623725891,4.194641590118408,0.5124073624610901,0.44872280955314636,-0.9963032007217407,35.809410095214844
2025-09-11 14:35:05.560,842923,-8.097189903259277,-0.5482721924781799,3.3925838470458984,0.18812249600887299,-0.2059755027294159,-0.5449157953262329,35.797645568847656
2025-09-11 14:35:05.610,842943,-8.98543930053711,-2.2194249629974365,0.7709329724311829,-0.11644410341978073,-0.04663093388080597,0.4974854588508606,35.809410095214844
2025-09-11 14:35:05.610,842963,-9.311050415039062,0.5386953949928284,0.8643068075180054,0.07993873953819275,0.17586523294448853,0.8313629031181335,35.77411651611328
2025-09-11 14:35:05.624,842985,-8.7484130859375,-0.19871874153614044,2.786850690841675,-0.014388973824679852,-0.20650841295719147,0.37144869565963745,35.78588104248047
2025-09-11 14:35:05.641,843004,-8.425195693969727,-0.7996633648872375,3.184288263320923,0.07061255723237991,-0.21690045297145844,0.6413751840591431,35.79470443725586
2025-09-11 14:35:05.662,843024,-8.829815864562988,0.4668693244457245,3.1459810733795166,-0.25953444838523865,-0.21157120168209076,0.5736936926841736,35.809410095214844
2025-09-11 14:35:05.714,843044,-8.17380428314209,0.5219359993934631,3.44765043258667,-0.4271393418312073,-0.12070750445127487,0.4625788629055023,35.809410095214844
2025-09-11 14:35:05.714,843064,-8.552088737487793,0.6416460275650024,3.2609026432037354,-0.38317304849624634,-0.05196018144488335,0.5675650835037231,35.79176330566406
2025-09-11 14:35:05.722,843084,-8.47786808013916,-0.47884035110473633,3.576937437057495,-0.24914240837097168,-0.059687595814466476,0.9856446981430054,35.797645568847656
2025-09-11 14:35:05.833,843104,-8.707711219787598,0.6009446382522583,3.1938650608062744,-0.0855344608426094,0.18519142270088196,1.2545052766799927,35.797645568847656
2025-09-11 14:35:05.833,843124,-8.56884765625,1.9297266006469727,2.5306711196899414,-0.2454119473695755,-0.035173047333955765,0.7319723963737488,35.78588104248047
2025-09-11 14:35:05.833,843144,-8.62630844116211,1.6855180263519287,2.535459518432617,-0.4527197480201721,-0.2275589555501938,-0.0724777951836586,35.788822174072266
2025-09-11 14:35:05.833,843164,-8.59997272491455,1.139639973640442,3.3638534545898438,-0.22702603042125702,-0.40449005365371704,-0.20384378731250763,35.77411651611328
2025-09-11 14:35:05.833,843184,-8.652645111083984,0.2537853717803955,3.536235809326172,-0.5561071634292603,-0.3376079499721527,0.04583154618740082,35.779998779296875
2025-09-11 14:35:05.841,843204,-8.468291282653809,-0.22026655077934265,3.773261785507202,-0.31682389974594116,-0.25633689761161804,0.5571730136871338,35.78293991088867
2025-09-11 14:35:05.861,843224,-8.394071578979492,0.6943184733390808,4.060565948486328,-0.03570597246289253,-0.3178897500038147,0.8183063268661499,35.779998779296875
2025-09-11 14:35:05.917,843244,-8.279149055480957,1.5179238319396973,3.5242648124694824,-0.04876263439655304,-0.5811547040939331,0.6520336866378784,35.79470443725586
2025-09-11 14:35:05.917,843264,-7.9631147384643555,1.2186486721038818,3.1220390796661377,-0.197715163230896,-0.6368452906608582,0.3061653971672058,35.797645568847656
2025-09-11 14:35:05.921,843284,-8.259995460510254,1.5275006294250488,3.600879430770874,-0.2845819294452667,-0.6280520558357239,0.05649004504084587,35.79176330566406
2025-09-11 14:35:05.942,843304,-7.687781810760498,1.522712230682373,4.168305397033691,-0.35146403312683105,-0.6861408948898315,-0.040768761187791824,35.80352783203125
2025-09-11 14:35:05.961,843324,-7.2113356590271,1.680729627609253,4.37420654296875,-0.37651148438453674,-0.6064686179161072,-0.1430903524160385,35.79176330566406
2025-09-11 14:35:06.024,843344,-7.5848307609558105,1.3934253454208374,4.400542736053467,-0.2944410443305969,-0.45058804750442505,-0.2816508412361145,35.788822174072266
2025-09-11 14:35:06.058,843364,-7.73087739944458,0.8403648138046265,4.651933670043945,-0.224094957113266,-0.27232465147972107,-0.3842388689517975,35.79176330566406
2025-09-11 14:35:06.058,843384,-7.927201747894287,0.7134721279144287,4.795586109161377,-0.10924961417913437,-0.12710259854793549,-0.24141500890254974,35.78588104248047
2025-09-11 14:35:06.058,843404,-7.814674377441406,0.751779317855835,4.596867084503174,-0.030110260471701622,-0.04583154618740082,0.0378376729786396,35.80352783203125
2025-09-11 14:35:06.066,843426,-8.034940719604492,0.8547300100326538,4.438849925994873,0.035972435027360916,-0.026646247133612633,0.29204288125038147,35.797645568847656
2025-09-11 14:35:06.123,843445,-7.841010570526123,1.0079588890075684,4.223371982574463,0.008526799269020557,-0.08793261647224426,0.3149586319923401,35.78293991088867
2025-09-11 14:35:06.123,843465,-7.927201747894287,0.8810662031173706,4.2329487800598145,-0.06821439415216446,-0.16094334423542023,0.23022358119487762,35.797645568847656
2025-09-11 14:35:06.123,843485,-7.888894557952881,1.0271124839782715,4.20421838760376,-0.1071179136633873,-0.22116385400295258,0.14921899139881134,35.788822174072266
2025-09-11 14:35:06.152,843505,-7.987056732177734,0.828393816947937,4.355052947998047,-0.12976722419261932,-0.2390168458223343,0.1300336867570877,35.797645568847656
2025-09-11 14:35:06.178,843525,-7.965508937835693,1.0965443849563599,4.426878929138184,-0.10471975803375244,-0.22462786734104156,0.2073078155517578,35.79470443725586
2025-09-11 14:35:06.230,843545,-8.195352554321289,1.1348515748977661,4.46518611907959,-0.1449555903673172,-0.2797856032848358,0.3213537633419037,35.78293991088867
2025-09-11 14:35:06.230,843565,-8.037335395812988,0.9265560507774353,4.4292731285095215,-0.1926523745059967,-0.3805084228515625,0.4268729090690613,35.771175384521484
2025-09-11 14:35:06.230,843585,-9.129091262817383,0.5267243981361389,5.961562156677246,-0.11111485213041306,-0.6216569542884827,1.04879629611969,35.78588104248047
2025-09-11 14:35:06.241,843605,-7.225700855255127,1.647210717201233,4.125209331512451,-0.253938764333725,-0.6562970876693726,0.7237120866775513,35.78588104248047
2025-09-11 14:35:06.262,843625,-7.268796443939209,1.2737152576446533,4.632780075073242,-0.6059356331825256,-0.5475804209709167,0.7005298733711243,35.788822174072266
2025-09-11 14:35:06.318,843645,-7.50582218170166,1.3766659498214722,4.697423934936523,-0.570229709148407,-0.5297273993492126,0.5097427368164062,35.80646896362305
2025-09-11 14:35:06.318,843665,-7.311892032623291,1.4317326545715332,4.774038314819336,-0.5022817850112915,-0.5835528373718262,0.5638346076011658,35.797645568847656
2025-09-11 14:35:06.323,843685,-7.3885064125061035,1.1444283723831177,5.015852451324463,-0.39276570081710815,-0.40422356128692627,0.752223551273346,35.80646896362305
2025-09-11 14:35:06.342,843705,-7.390900611877441,1.6065093278884888,5.145139217376709,-0.3093629479408264,-0.4156814515590668,0.5598376989364624,35.779998779296875
2025-09-11 14:35:06.363,843725,-6.701370716094971,1.8171991109848022,4.888959884643555,-0.3786431849002838,-0.1268361359834671,0.5459815859794617,35.80058670043945
2025-09-11 14:35:06.383,843745,-7.2137298583984375,2.027888774871826,5.494692802429199,-0.23528636991977692,-0.09352833032608032,0.44552528858184814,35.80646896362305
2025-09-11 14:35:06.420,843765,-8.032546997070312,1.3120225667953491,6.088454723358154,-0.16041041910648346,-0.2139693647623062,0.33680859208106995,35.818233489990234
2025-09-11 14:35:06.428,843785,-7.577648162841797,1.2090718746185303,5.884947776794434,0.030376723036170006,-0.25100764632225037,0.42074427008628845,35.80058670043945
2025-09-11 14:35:06.442,843805,-7.314286231994629,1.4939818382263184,5.449203014373779,0.21823276579380035,-0.36798468232154846,0.5318590998649597,35.80058670043945
2025-09-11 14:35:06.465,843825,-7.726089000701904,2.2409727573394775,5.746084213256836,0.30216845870018005,-0.45698314905166626,0.5345237255096436,35.80646896362305
2025-09-11 14:35:06.488,843845,-8.216899871826172,2.827552318572998,5.96874475479126,0.17346706986427307,-0.5065451860427856,0.5534425377845764,35.81235122680664
2025-09-11 14:35:06.522,843866,-7.33583402633667,2.2625205516815186,5.286397457122803,0.04023583605885506,-0.49988362193107605,0.40742114186286926,35.788822174072266
2025-09-11 14:35:06.523,843886,-6.821080684661865,0.9888052940368652,5.683835029602051,0.11218070238828659,-0.4034242033958435,0.10258805006742477,35.77411651611328
2025-09-11 14:35:06.543,843906,-6.246472358703613,0.9050082564353943,5.054159641265869,0.243813157081604,-0.3887687623500824,-0.16094334423542023,35.78293991088867
2025-09-11 14:35:06.563,843926,-6.574477672576904,2.229001760482788,5.3342814445495605,0.2616661489009857,-0.362122505903244,-0.2422143965959549,35.788822174072266
2025-09-11 14:35:06.586,843946,-6.897695064544678,2.497152328491211,5.980715751647949,0.18892189860343933,-0.4316692054271698,-0.022649310529232025,35.80058670043945
2025-09-11 14:35:06.624,843966,-6.414066314697266,2.22660756111145,5.827486991882324,0.3029678165912628,-0.5307932496070862,0.2059755027294159,35.78588104248047
2025-09-11 14:35:06.630,843986,-5.746084213256836,2.2026655673980713,5.509057998657227,0.3493323028087616,-0.5204012393951416,0.2845819294452667,35.797645568847656
2025-09-11 14:35:06.644,844006,-5.413290023803711,2.1547815799713135,5.006275653839111,0.3077641427516937,-0.3837059736251831,0.16360795497894287,35.81235122680664
2025-09-11 14:35:06.665,844026,-5.940014362335205,2.652775526046753,5.272032260894775,0.2126370668411255,-0.23208880424499512,-0.058088820427656174,35.771175384521484
2025-09-11 14:35:06.683,844046,-6.785167694091797,3.287238836288452,5.705382823944092,0.14895252883434296,-0.22302909195423126,-0.1745329201221466,35.797645568847656
2025-09-11 14:35:06.730,844066,-7.072471618652344,3.7660791873931885,5.882553577423096,0.1334977000951767,-0.3045666217803955,-0.13109953701496124,35.809410095214844
2025-09-11 14:35:06.730,844086,-6.936002254486084,3.7708675861358643,5.7556610107421875,0.13403062522411346,-0.40262481570243835,0.01598774828016758,35.79470443725586
2025-09-11 14:35:06.744,844106,-6.780379295349121,3.3734302520751953,5.535394191741943,0.17559877038002014,-0.4068881869316101,0.15747931599617004,35.80352783203125
2025-09-11 14:35:06.763,844126,-6.809109687805176,3.5434184074401855,5.700594425201416,0.263264924287796,-0.42101070284843445,0.2616661489009857,35.82117462158203
2025-09-11 14:35:06.783,844146,-6.742072105407715,3.7493197917938232,5.932831764221191,0.31735682487487793,-0.49641960859298706,0.3805084228515625,35.788822174072266
2025-09-11 14:35:06.831,844168,-6.567295074462891,3.445256233215332,6.2632317543029785,0.2944410443305969,-0.6762818098068237,0.47856661677360535,35.809410095214844
2025-09-11 14:35:06.831,844187,-5.813121795654297,2.8874073028564453,6.138733386993408,0.3341439664363861,-0.8473506569862366,0.4793660044670105,35.79176330566406
2025-09-11 14:35:06.845,844207,-5.008669853210449,2.8347349166870117,5.985504150390625,0.34959876537323,-0.9480735063552856,0.468174546957016,35.80352783203125
2025-09-11 14:35:06.864,844227,-4.367023944854736,2.7054479122161865,5.726930618286133,0.40795406699180603,-0.9379479289054871,0.46710872650146484,35.78588104248047
2025-09-11 14:35:06.884,844247,-4.436455726623535,2.7006595134735107,6.179434776306152,0.5156049132347107,-0.9001102447509766,0.5060122609138489,35.80058670043945
2025-09-11 14:35:06.934,844267,-4.228160381317139,3.050212860107422,6.174646377563477,0.5891485810279846,-0.889984667301178,0.4996171295642853,35.78588104248047
2025-09-11 14:35:06.934,844287,-4.4508209228515625,3.3279404640197754,6.672640323638916,0.6008729338645935,-0.8985114693641663,0.4759019911289215,35.79176330566406
2025-09-11 14:35:06.948,844307,-4.084507942199707,3.136404275894165,6.7277069091796875,0.6064686179161072,-0.9544686079025269,0.483895868062973,35.788822174072266
2025-09-11 14:35:06.966,844327,-3.598485231399536,2.9903578758239746,6.71334171295166,0.6352465152740479,-0.9046401381492615,0.41914546489715576,35.81235122680664
2025-09-11 14:35:06.985,844347,-3.44765043258667,3.2752678394317627,6.9455790519714355,0.6650903224945068,-0.7993873953819275,0.3541286587715149,35.797645568847656
2025-09-11 14:35:07.034,844367,-3.758896589279175,3.708618402481079,7.266402244567871,0.6842756867408752,-0.7266431450843811,0.335742712020874,35.80352783203125
2025-09-11 14:35:07.034,844387,-3.9025487899780273,3.9911341667175293,7.400477409362793,0.6661561727523804,-0.7122542262077332,0.3458682894706726,35.79176330566406
2025-09-11 14:35:07.056,844407,-3.6942532062530518,4.010287761688232,7.4770917892456055,0.623255729675293,-0.7282419204711914,0.34533536434173584,35.79470443725586
2025-09-11 14:35:07.063,844427,-3.308786630630493,4.508281707763672,7.357381820678711,0.5886155962944031,-0.7255772948265076,0.339206725358963,35.79176330566406
2025-09-11 14:35:07.087,844447,-2.7988216876983643,4.508281707763672,7.101202011108398,0.4772343039512634,-0.6941347718238831,0.28431546688079834,35.79470443725586
2025-09-11 14:35:07.152,844467,-2.5282769203186035,4.580107688903809,6.97430944442749,0.3429372012615204,-0.5641010403633118,0.16893720626831055,35.79470443725586
2025-09-11 14:35:07.152,844487,-2.7988216876983643,4.730942726135254,7.295132637023926,0.27232465147972107,-0.448456346988678,0.12097396701574326,35.78588104248047
2025-09-11 14:35:07.152,844507,-3.1028854846954346,5.056553840637207,7.553706169128418,0.2222297042608261,-0.41248390078544617,0.1681378185749054,35.80352783203125
2025-09-11 14:35:07.165,844527,-2.8850131034851074,4.900930881500244,7.5848307609558105,0.15081775188446045,-0.43406739830970764,0.23128943145275116,35.80058670043945
2025-09-11 14:35:07.183,844547,-2.434903144836426,4.5609540939331055,7.331045627593994,0.0905972421169281,-0.3855711817741394,0.18972128629684448,35.79470443725586
2025-09-11 14:35:07.239,844567,-2.4684219360351562,4.666299343109131,7.343016624450684,-0.0034640124067664146,-0.2915099561214447,0.06501684337854385,35.788822174072266
2025-09-11 14:35:07.239,844587,-2.779668092727661,5.0900726318359375,7.457938194274902,-0.05728943273425102,-0.23795099556446075,0.0005329249543137848,35.80058670043945
2025-09-11 14:35:07.246,844608,-3.224989652633667,5.228936672210693,7.692570209503174,-0.10525267571210861,-0.24967534840106964,0.05222664400935173,35.80058670043945
2025-09-11 14:35:07.266,844628,-3.1866824626922607,5.0900726318359375,7.666234016418457,-0.11644410341978073,-0.2731240391731262,0.13429708778858185,35.82117462158203
2025-09-11 14:35:07.285,844648,-3.0885202884674072,4.49870491027832,7.6351094245910645,-0.11937519162893295,-0.2968392074108124,0.14708729088306427,35.80058670043945
2025-09-11 14:35:07.344,844668,-2.896984100341797,4.467580318450928,7.527369976043701,-0.07833997160196304,-0.30563244223594666,0.07993873953819275,35.80352783203125
2025-09-11 14:35:07.346,844688,-2.674323320388794,4.551377296447754,7.398083209991455,-0.10738438367843628,-0.29230931401252747,0.039969369769096375,35.79176330566406
2025-09-11 14:35:07.348,844708,-2.5522189140319824,4.491522312164307,7.307103633880615,-0.12310566753149033,-0.26752832531929016,0.01811944879591465,35.788822174072266
2025-09-11 14:35:07.367,844728,-2.5977089405059814,4.630385875701904,7.3669586181640625,-0.1414915770292282,-0.24168147146701813,0.017053598538041115,35.779998779296875
2025-09-11 14:35:07.385,844748,-2.477998733520508,4.529829502105713,7.295132637023926,-0.138560488820076,-0.2238284796476364,0.05009494721889496,35.78588104248047
2025-09-11 14:35:07.405,844768,-2.5019407272338867,4.551377296447754,7.398083209991455,-0.1513506919145584,-0.19878099858760834,0.0642174556851387,35.78588104248047
2025-09-11 14:35:07.450,844788,-2.477998733520508,4.55616569519043,7.350199222564697,-0.14415618777275085,-0.1894548088312149,0.10658498853445053,35.80352783203125
2025-09-11 14:35:07.453,844808,-2.3558945655822754,4.491522312164307,7.438784599304199,-0.11564471572637558,-0.1811944842338562,0.1548146903514862,35.788822174072266
2025-09-11 14:35:07.483,844828,-2.030282974243164,4.412513732910156,7.402871608734131,-0.09752526879310608,-0.1564134806394577,0.19211943447589874,35.79470443725586
2025-09-11 14:35:07.485,844848,-1.7932571172714233,4.175487995147705,7.457938194274902,-0.09486064314842224,-0.11004900932312012,0.2025114744901657,35.788822174072266
2025-09-11 14:35:07.506,844868,-1.6160861253738403,4.089296340942383,7.395689010620117,-0.07354364544153214,-0.0724777951836586,0.204110249876976,35.79470443725586
2025-09-11 14:35:07.569,844888,-1.3718775510787964,4.2329487800598145,7.508216381072998,-0.08366922289133072,-0.016520673409104347,0.19798162579536438,35.80646896362305
2025-09-11 14:35:07.569,844908,-1.173158884048462,4.2090067863464355,7.539340972900391,-0.10631853342056274,0.04929555580019951,0.18199387192726135,35.78588104248047
2025-09-11 14:35:07.579,844928,-1.2449848651885986,4.357447147369385,7.716512203216553,-0.12976722419261932,0.1268361359834671,0.1732006072998047,35.80352783203125
2025-09-11 14:35:07.585,844948,-1.3694833517074585,4.359841346740723,8.101978302001953,-0.12923429906368256,0.138560488820076,0.23155589401721954,35.80352783203125
2025-09-11 14:35:07.605,844968,-1.0773907899856567,4.288015365600586,8.101978302001953,-0.09992342442274094,0.18012863397598267,0.3098958730697632,35.80646896362305
2025-09-11 14:35:07.650,844988,-0.9648633003234863,4.304774761199951,8.248024940490723,-0.05782235786318779,0.26806125044822693,0.35013172030448914,35.80646896362305
2025-09-11 14:35:07.650,845008,-1.0319008827209473,4.644751071929932,8.288725852966309,-0.014388973824679852,0.3373415172100067,0.38450536131858826,35.797645568847656
2025-09-11 14:35:07.667,845028,-1.2306196689605713,5.262455463409424,8.145073890686035,-0.04236753284931183,0.39436444640159607,0.38637059926986694,35.79470443725586
2025-09-11 14:35:07.690,845049,-1.742978811264038,5.880159378051758,8.183381080627441,-0.18492496013641357,0.4218100905418396,0.35306277871131897,35.80352783203125
2025-09-11 14:35:07.712,845069,-2.0901381969451904,5.736507415771484,8.133103370666504,-0.34187135100364685,0.3805084228515625,0.35865849256515503,35.80352783203125
2025-09-11 14:35:07.760,845089,-2.3032219409942627,5.178658485412598,7.740454196929932,-0.4202113449573517,0.3741133213043213,0.3472006022930145,35.79470443725586
2025-09-11 14:35:07.760,845109,-2.8371291160583496,5.0254292488098145,7.603984832763672,-0.4412618577480316,0.38823580741882324,0.3474670946598053,35.80646896362305
2025-09-11 14:35:07.767,845129,-3.3016040325164795,4.757278919219971,7.357381820678711,-0.4564502239227295,0.36025726795196533,0.3719816207885742,35.81529235839844
2025-09-11 14:35:07.790,845149,-3.3662476539611816,4.606443881988525,6.995857238769531,-0.4854946434497833,0.3472006022930145,0.3975619971752167,35.77705764770508
2025-09-11 14:35:07.806,845169,-3.5673606395721436,3.869029998779297,7.161057472229004,-0.5148054957389832,0.3258835971355438,0.4186125695705414,35.788822174072266
2025-09-11 14:35:07.853,845189,-3.4763808250427246,3.0573954582214355,7.015010833740234,-0.46391117572784424,0.2837825417518616,0.4295375347137451,35.82706069946289
2025-09-11 14:35:07.853,845209,-3.248931646347046,2.47560453414917,6.98628044128418,-0.32721590995788574,0.2688606381416321,0.42420828342437744,35.779998779296875
2025-09-11 14:35:07.870,845229,-2.9975404739379883,2.449268341064453,7.113173484802246,-0.135096475481987,0.29257580637931824,0.42927104234695435,35.80058670043945
2025-09-11 14:35:07.895,845249,-2.9544448852539062,2.9688100814819336,7.266402244567871,0.013856049627065659,0.3082970678806305,0.444992333650589,35.77705764770508
2025-09-11 14:35:07.915,845269,-3.2130186557769775,3.44765043258667,7.474697589874268,0.10018989443778992,0.25447165966033936,0.4316692054271698,35.797645568847656
2025-09-11 14:35:07.954,845289,-2.956839084625244,3.825934410095215,7.383718013763428,0.11591117829084396,0.17826339602470398,0.37171515822410583,35.78293991088867
2025-09-11 14:35:07.955,845309,-2.671929121017456,4.000710964202881,7.228095054626465,0.06315161287784576,0.1630750447511673,0.22436140477657318,35.788822174072266
2025-09-11 14:35:07.966,845329,-2.698265314102173,4.393360137939453,7.354987621307373,-0.0013323123566806316,0.16360795497894287,0.0362388975918293,35.78588104248047
2025-09-11 14:35:07.991,845351,-2.9041666984558105,4.7189717292785645,7.536946773529053,-0.07301072031259537,0.12790198624134064,-0.038104135543107986,35.80058670043945
2025-09-11 14:35:08.015,845370,-2.9496564865112305,4.738125324249268,7.60637903213501,-0.08180397748947144,0.06128636747598648,-0.008526799269020557,35.762351989746094
2025-09-11 14:35:08.071,845390,-2.8155810832977295,4.8267107009887695,7.489062786102295,-0.08100459724664688,-0.0005329249543137848,0.035972435027360916,35.779998779296875
2025-09-11 14:35:08.071,845410,-2.6839001178741455,4.757278919219971,7.383718013763428,-0.07274425029754639,-0.026379786431789398,0.09033077955245972,35.771175384521484
2025-09-11 14:35:08.081,845430,-2.5043349266052246,4.793191909790039,7.400477409362793,-0.03250842168927193,-0.040768761187791824,0.15028484165668488,35.779998779296875
2025-09-11 14:35:08.089,845450,-2.169146776199341,4.857835292816162,7.307103633880615,-0.0007993874605745077,-0.02158346027135849,0.21556814014911652,35.78293991088867
2025-09-11 14:35:08.109,845470,-2.056619167327881,4.778826713562012,7.240066051483154,-0.0013323123566806316,0.011457886546850204,0.2731240391731262,35.79176330566406
2025-09-11 14:35:08.161,845490,-2.0638017654418945,4.7620673179626465,7.137115478515625,0.00506278732791543,0.058088820427656174,0.27898621559143066,35.779998779296875
2025-09-11 14:35:08.161,845510,-2.343923568725586,4.93923807144165,7.350199222564697,-0.03837059438228607,0.07860642671585083,0.2584685981273651,35.78293991088867
2025-09-11 14:35:08.167,845530,-2.3582887649536133,4.898536682128906,7.316680431365967,-0.07487595826387405,0.07540887594223022,0.25154057145118713,35.79176330566406
2025-09-11 14:35:08.187,845550,-2.3056161403656006,5.1116204261779785,7.16584587097168,-0.05835527926683426,0.10898315161466599,0.2781868278980255,35.771175384521484
2025-09-11 14:35:08.207,845570,-2.274491548538208,5.20978307723999,7.115567684173584,-0.07754058390855789,0.1566799432039261,0.303500771522522,35.77411651611328
