timestamp,esp_timestamp,accel_x,accel_y,accel_z,gyro_x,gyro_y,gyro_z,temperature
2025-09-11 14:31:45.573,642933,-6.495469093322754,2.604891538619995,5.825092792510986,0.1417580395936966,0.05222664400935173,0.08766615390777588,35.97117614746094
2025-09-11 14:31:45.622,642953,-6.069301128387451,2.5522189140319824,5.585672378540039,0.11537826061248779,0.050361406058073044,0.05222664400935173,35.974117279052734
2025-09-11 14:31:45.623,642973,-6.277596950531006,2.2361843585968018,5.722142219543457,0.0921960175037384,0.03250842168927193,-0.011724349111318588,35.96823501586914
2025-09-11 14:31:45.634,642993,-6.3518171310424805,2.470816135406494,5.710171222686768,0.08446860313415527,-0.003197549842298031,-0.006928024813532829,35.96823501586914
2025-09-11 14:31:45.653,643013,-6.349422931671143,2.499546527862549,5.57370138168335,0.06768146902322769,-0.02851148694753647,-0.026912709698081017,35.982940673828125
2025-09-11 14:31:45.673,643033,-6.732495307922363,2.647987127304077,5.805939197540283,0.034640122205019,-0.02371516078710556,-0.01252373680472374,35.96823501586914
2025-09-11 14:31:45.740,643053,-6.856993675231934,2.341529369354248,6.030993938446045,0.10232159495353699,-0.029577335342764854,0.0839356780052185,35.96823501586914
2025-09-11 14:31:45.741,643073,-6.720524311065674,2.0374655723571777,5.872976779937744,0.2256937175989151,-0.024514546617865562,0.19052067399024963,35.97999954223633
2025-09-11 14:31:45.741,643093,-6.248866558074951,2.557007312774658,5.4659624099731445,0.2752557396888733,-0.003197549842298031,0.1745329201221466,35.96823501586914
2025-09-11 14:31:45.753,643113,-6.22731876373291,2.8634653091430664,5.382165431976318,0.12097396701574326,0.028777947649359703,0.1039203628897667,35.95941162109375
2025-09-11 14:31:45.774,643133,-6.414066314697266,2.7485435009002686,5.564124584197998,0.01945176161825657,0.03410719707608223,0.050361406058073044,35.96235275268555
2025-09-11 14:31:45.876,643153,-6.335057735443115,2.671929121017456,5.647922039031982,-0.0021316998172551394,0.04023583605885506,0.03410719707608223,35.965293884277344
2025-09-11 14:31:45.876,643173,-6.404489517211914,2.7748796939849854,5.590460777282715,-0.04476569592952728,0.05009494721889496,0.02931087277829647,35.97117614746094
2025-09-11 14:31:45.876,643193,-6.660669326782227,2.492363929748535,5.774814605712891,-0.035972435027360916,0.03224195912480354,0.052759572863578796,35.95941162109375
2025-09-11 14:31:45.876,643213,-6.428431510925293,2.5665841102600098,5.66228723526001,0.0010658499086275697,0.039969369769096375,0.08526799082756042,35.96823501586914
2025-09-11 14:31:45.876,643233,-6.478709697723389,2.7006595134735107,5.796362400054932,-0.01252373680472374,0.04743032157421112,0.07540887594223022,35.97117614746094
2025-09-11 14:31:45.930,643253,-6.636727333068848,2.6455929279327393,5.789179801940918,0.010658498853445053,0.04236753284931183,0.08127105236053467,35.97999954223633
2025-09-11 14:31:45.930,643273,-6.493074893951416,2.6791117191314697,5.686229228973389,0.05862174555659294,0.028777947649359703,0.08979785442352295,35.96823501586914
2025-09-11 14:31:45.933,643293,-6.370970726013184,2.674323320388794,5.5114521980285645,0.048496171832084656,0.01678713597357273,0.06741500645875931,35.98588180541992
2025-09-11 14:31:45.955,643313,-6.2416839599609375,2.5953147411346436,5.386953830718994,0.0053292494267225266,0.0045298621989786625,0.04210107401013374,35.98588180541992
2025-09-11 14:31:45.974,643333,-6.423643112182617,2.6024973392486572,5.592854976654053,-0.0543583482503891,-0.0015987749211490154,0.023182237520813942,35.965293884277344
2025-09-11 14:31:46.028,643355,-6.797138690948486,2.540247917175293,5.66228723526001,-0.02291577309370041,-0.0002664624771568924,0.03250842168927193,35.95058822631836
2025-09-11 14:31:46.029,643374,-6.811503887176514,2.669534921646118,5.726930618286133,0.015721285715699196,-0.0018652373692020774,0.051160797476768494,35.965293884277344
2025-09-11 14:31:46.034,643394,-6.368576526641846,2.849100112915039,5.705382823944092,0.033041346818208694,0.013056661002337933,0.05915467068552971,35.97117614746094
2025-09-11 14:31:46.055,643414,-6.497863292694092,2.9328970909118652,5.736507415771484,0.005862174555659294,0.03064318373799324,0.07727411389350891,35.97117614746094
2025-09-11 14:31:46.074,643434,-6.610390663146973,2.8347349166870117,5.7341132164001465,0.006395099684596062,0.007727412041276693,0.12497090548276901,35.96823501586914
2025-09-11 14:31:46.135,643454,-6.256049156188965,2.6360161304473877,5.899312973022461,0.01598774828016758,-0.04476569592952728,0.16440735757350922,35.965293884277344
2025-09-11 14:31:46.135,643474,-5.683835029602051,3.0142998695373535,5.729324817657471,-0.015454824082553387,-0.08979785442352295,0.1468208134174347,35.965293884277344
2025-09-11 14:31:46.135,643494,-5.738901615142822,3.2345664501190186,5.5114521980285645,-0.11431240290403366,-0.0642174556851387,0.09752526879310608,35.97117614746094
2025-09-11 14:31:46.161,643514,-6.332663536071777,3.1651346683502197,5.679046630859375,-0.2107718288898468,-0.05995405837893486,0.05489126965403557,35.95647048950195
2025-09-11 14:31:46.180,643534,-6.387730121612549,2.9065608978271484,5.78678560256958,-0.22622664272785187,-0.0839356780052185,0.07301072031259537,35.974117279052734
2025-09-11 14:31:46.238,643554,-6.332663536071777,2.647987127304077,5.861005783081055,-0.22036448121070862,-0.11004900932312012,0.11244716495275497,35.96823501586914
2025-09-11 14:31:46.238,643574,-6.466738700866699,2.741360902786255,5.95677375793457,-0.20144562423229218,-0.1401592642068863,0.11004900932312012,35.96823501586914
2025-09-11 14:31:46.238,643594,-6.514622688293457,2.7724854946136475,6.004657745361328,-0.1926523745059967,-0.17586523294448853,0.14468912780284882,35.97705841064453
2025-09-11 14:31:46.254,643614,-6.189011573791504,2.43011474609375,6.066906929016113,-0.12630322575569153,-0.15854516625404358,0.1779969334602356,35.974117279052734
2025-09-11 14:31:46.282,643634,-6.004657745361328,2.6839001178741455,6.107608318328857,-0.06634915620088577,-0.11804287135601044,0.16893720626831055,35.97999954223633
2025-09-11 14:31:46.302,643654,-5.839457988739014,2.9688100814819336,6.035782337188721,-0.05355895683169365,-0.08207044005393982,0.16174273192882538,35.965293884277344
2025-09-11 14:31:46.338,643674,-5.899312973022461,2.8850131034851074,5.975927352905273,-0.05649004504084587,-0.02797855995595455,0.12710259854793549,35.991764068603516
2025-09-11 14:31:46.338,643694,-5.992686748504639,2.784456491470337,5.963956356048584,-0.029843797907233238,-0.003197549842298031,0.08127105236053467,35.95941162109375
2025-09-11 14:31:46.354,643714,-5.987898349761963,2.669534921646118,5.813121795654297,-0.030376723036170006,0.03890352323651314,-0.01811944879591465,35.97999954223633
2025-09-11 14:31:46.374,643734,-6.299144744873047,2.868253707885742,5.949591159820557,-0.03330780938267708,0.05382541939616203,-0.02105053700506687,35.965293884277344
2025-09-11 14:31:46.443,643754,-6.44279670715332,2.738966703414917,5.942408561706543,-0.030110260471701622,0.029044410213828087,0.035972435027360916,35.95941162109375
2025-09-11 14:31:46.443,643774,-6.435614109039307,2.5929205417633057,5.839457988739014,-0.022116385400295258,0.01252373680472374,0.0873996913433075,35.95647048950195
2025-09-11 14:31:46.443,643795,-6.521805286407471,2.5546131134033203,5.784391403198242,0.0023981621488928795,-0.0010658499086275697,0.09033077955245972,35.982940673828125
2025-09-11 14:31:46.453,643814,-6.299144744873047,2.7700912952423096,5.774814605712891,0.0018652373692020774,-0.023981623351573944,0.10924961417913437,35.96823501586914
2025-09-11 14:31:46.475,643834,-5.928043365478516,2.674323320388794,5.760449409484863,-0.008793261833488941,-0.028777947649359703,0.11830934137105942,35.97117614746094
2025-09-11 14:31:46.496,643854,-5.750872611999512,2.671929121017456,5.784391403198242,-0.009859112091362476,0.0034640124067664146,0.031709033995866776,35.96823501586914
2025-09-11 14:31:46.546,643874,-5.801150798797607,2.956839084625244,5.904101371765137,-0.040768761187791824,0.04023583605885506,-0.027445634827017784,35.96823501586914
2025-09-11 14:31:46.546,643894,-6.160281181335449,3.0573954582214355,6.121973514556885,-0.06368453055620193,0.04396630823612213,0.0005329249543137848,35.95647048950195
2025-09-11 14:31:46.554,643914,-6.342240333557129,3.0526070594787598,6.184223175048828,-0.08633384108543396,0.027712099254131317,0.01945176161825657,35.96235275268555
2025-09-11 14:31:46.575,643934,-6.378153324127197,2.607285737991333,6.246472358703613,-0.04156814515590668,-0.002931087277829647,0.07061255723237991,35.96823501586914
2025-09-11 14:31:46.594,643954,-6.308721542358398,2.612074136734009,6.2201361656188965,0.049029093235731125,-0.02025114931166172,0.11537826061248779,35.965293884277344
2025-09-11 14:31:46.664,643974,-6.016628742218018,2.827552318572998,5.963956356048584,0.08953139185905457,-0.010924961417913437,0.15108422935009003,35.982940673828125
2025-09-11 14:31:46.664,643994,-6.066906929016113,2.959233283996582,5.901707172393799,0.06954670697450638,0.0037304747384041548,0.15534763038158417,35.95647048950195
2025-09-11 14:31:46.664,644014,-6.141127586364746,2.9089550971984863,5.940014362335205,0.04796324670314789,-0.0015987749211490154,0.13696171343326569,35.99764633178711
2025-09-11 14:31:46.683,644034,-6.196194171905518,2.9041666984558105,6.023811340332031,0.07007963210344315,-0.012257273308932781,0.17186829447746277,35.96823501586914
2025-09-11 14:31:46.752,644054,-6.074089527130127,3.023876667022705,5.918466567993164,0.06661561876535416,-0.028777947649359703,0.17906278371810913,35.97117614746094
2025-09-11 14:31:46.752,644074,-6.150704383850098,2.8826189041137695,5.91128396987915,0.07540887594223022,-0.04210107401013374,0.1961163729429245,35.96823501586914
2025-09-11 14:31:46.752,644094,-5.92325496673584,2.9664158821105957,5.784391403198242,0.07754058390855789,-0.0444992333650589,0.17053598165512085,35.974117279052734
2025-09-11 14:31:46.754,644114,-5.808333396911621,3.0095114707946777,5.743690013885498,0.0559571199119091,-0.0189188364893198,0.1119142398238182,35.95647048950195
2025-09-11 14:31:46.777,644134,-6.023811340332031,3.157952070236206,5.851428985595703,0.02078407257795334,0.009326186962425709,0.06741500645875931,35.96823501586914
2025-09-11 14:31:46.794,644154,-6.076483726501465,3.0358476638793945,5.892130374908447,0.014122511260211468,0.006661561783403158,0.03064318373799324,35.965293884277344
2025-09-11 14:31:46.846,644174,-5.985504150390625,3.0166940689086914,5.839457988739014,0.03410719707608223,-0.003996937070041895,0.026113322004675865,35.96235275268555
2025-09-11 14:31:46.846,644194,-5.944802761077881,3.1747114658355713,5.837063789367676,-0.0026646247133612633,0.006928024813532829,0.018652373924851418,35.98882293701172
2025-09-11 14:31:46.854,644214,-6.184223175048828,3.1220390796661377,6.066906929016113,-0.036505360156297684,-0.0005329249543137848,0.04529862105846405,35.94764709472656
2025-09-11 14:31:46.878,644236,-5.971138954162598,3.093308687210083,6.052541732788086,-0.02851148694753647,-0.05009494721889496,0.0873996913433075,35.97999954223633
2025-09-11 14:31:46.894,644255,-5.714959621429443,3.138798475265503,6.066906929016113,-0.017586523666977882,-0.05009494721889496,0.06714854389429092,35.97999954223633
2025-09-11 14:31:46.966,644275,-5.832275390625,3.265691041946411,6.174646377563477,-0.016254210844635963,-0.06501684337854385,0.049828484654426575,35.97117614746094
2025-09-11 14:31:46.967,644295,-5.57370138168335,3.2345664501190186,6.007051944732666,-0.031176110729575157,-0.052759572863578796,0.02291577309370041,35.96235275268555
2025-09-11 14:31:46.967,644315,-5.595249176025391,3.098097085952759,6.00226354598999,-0.05862174555659294,0.0,-0.03703828155994415,35.953529357910156
2025-09-11 14:31:46.977,644335,-6.026205539703369,3.095702886581421,6.1052141189575195,-0.07061255723237991,0.03543950989842415,-0.07194487005472183,35.965293884277344
2025-09-11 14:31:46.996,644355,-6.335057735443115,3.0573954582214355,6.129156112670898,-0.05169371888041496,-0.010658498853445053,-0.018385911360383034,35.97117614746094
2025-09-11 14:31:47.063,644375,-6.1770405769348145,2.8850131034851074,5.975927352905273,-0.009859112091362476,-0.030909648165106773,-0.0034640124067664146,35.97705841064453
2025-09-11 14:31:47.063,644395,-6.203376770019531,3.095702886581421,6.0190229415893555,0.008526799269020557,-0.02851148694753647,0.014388973824679852,35.97117614746094
2025-09-11 14:31:47.063,644415,-6.050147533416748,3.0334534645080566,5.8873419761657715,0.006395099684596062,-0.024781011044979095,0.045565083622932434,35.97117614746094
2025-09-11 14:31:47.076,644435,-5.875370979309082,2.9975404739379883,5.849034786224365,-0.02238284796476364,-0.00559571199119091,0.049029093235731125,35.965293884277344
2025-09-11 14:31:47.094,644455,-5.983109951019287,3.047818660736084,6.028599739074707,-0.03543950989842415,-0.009059724397957325,0.056756507605314255,35.95647048950195
2025-09-11 14:31:47.160,644475,-5.882553577423096,3.023876667022705,6.035782337188721,-0.05782235786318779,-0.030376723036170006,0.0559571199119091,35.974117279052734
2025-09-11 14:31:47.160,644495,-5.774814605712891,2.9520506858825684,6.13633918762207,-0.04876263439655304,-0.029044410213828087,-0.0013323123566806316,35.95941162109375
2025-09-11 14:31:47.160,644515,-5.590460777282715,3.184288263320923,5.9974751472473145,-0.03916998580098152,-0.007727412041276693,-0.06395099312067032,35.96823501586914
2025-09-11 14:31:47.174,644535,-5.7772088050842285,3.2345664501190186,6.071695327758789,-0.05569066107273102,0.011457886546850204,-0.058088820427656174,35.991764068603516
2025-09-11 14:31:47.194,644555,-6.064512729644775,3.002328872680664,6.155492782592773,-0.07034609466791153,0.006395099684596062,-0.03250842168927193,35.974117279052734
2025-09-11 14:31:47.261,644575,-6.100425720214844,2.9975404739379883,6.0405707359313965,-0.06368453055620193,-0.006661561783403158,-0.009326186962425709,35.96823501586914
2025-09-11 14:31:47.261,644595,-5.901707172393799,2.9496564865112305,5.971138954162598,-0.058888208121061325,0.0002664624771568924,0.007727412041276693,35.974117279052734
2025-09-11 14:31:47.261,644615,-5.858611583709717,2.911349296569824,6.050147533416748,-0.062352221459150314,0.03277488425374031,0.006928024813532829,35.974117279052734
2025-09-11 14:31:47.283,644635,-6.026205539703369,2.8993782997131348,6.119579315185547,-0.04476569592952728,0.04369984567165375,0.006128636654466391,35.982940673828125
2025-09-11 14:31:47.298,644655,-6.098031520843506,2.868253707885742,6.09324312210083,-0.01012557465583086,0.02238284796476364,0.03064318373799324,35.982940673828125
2025-09-11 14:31:47.369,644677,-5.889736175537109,3.0190882682800293,6.112396717071533,-0.008526799269020557,0.026379786431789398,0.019718224182724953,35.974117279052734
2025-09-11 14:31:47.369,644696,-5.810727596282959,3.1244332790374756,6.023811340332031,-0.028777947649359703,0.03757121041417122,0.026379786431789398,35.97705841064453
2025-09-11 14:31:47.369,644716,-5.8657941818237305,3.0382418632507324,5.980715751647949,-0.06501684337854385,0.03570597246289253,0.0005329249543137848,35.95941162109375
2025-09-11 14:31:47.376,644736,-5.856217384338379,3.0765492916107178,6.117185115814209,-0.08473506569862366,0.026646247133612633,-0.058888208121061325,35.97117614746094
2025-09-11 14:31:47.395,644756,-5.817910194396973,2.911349296569824,6.078877925872803,-0.09272895008325577,0.020517610013484955,-0.058888208121061325,35.97705841064453
2025-09-11 14:31:47.415,644776,-5.832275390625,2.8826189041137695,5.978321552276611,-0.0791393592953682,0.040768761187791824,-0.06608269363641739,35.95941162109375
2025-09-11 14:31:47.467,644796,-6.050147533416748,2.985569477081299,6.234501361846924,-0.06554976850748062,0.034640122205019,-0.03570597246289253,35.965293884277344
2025-09-11 14:31:47.467,644816,-5.789179801940918,2.8850131034851074,6.18182897567749,-0.07114548236131668,0.006395099684596062,-0.019185297191143036,35.97999954223633
2025-09-11 14:31:47.476,644836,-5.69580602645874,2.8586769104003906,6.100425720214844,-0.07674118876457214,0.0378376729786396,-0.035173047333955765,35.982940673828125
2025-09-11 14:31:47.495,644856,-5.875370979309082,2.87064790725708,6.100425720214844,-0.04822970926761627,0.06661561876535416,-0.06075344607234001,35.991764068603516
2025-09-11 14:31:47.516,644876,-6.210559368133545,2.80361008644104,6.344634532928467,-0.017586523666977882,0.05222664400935173,-0.03890352323651314,35.97705841064453
2025-09-11 14:31:47.567,644896,-6.030993938446045,3.043030261993408,6.332663536071777,0.02158346027135849,0.009592648595571518,-0.018652373924851418,35.97705841064453
2025-09-11 14:31:47.567,644916,-5.810727596282959,3.1435868740081787,6.157886981964111,0.02717917412519455,-0.002931087277829647,0.035972435027360916,35.982940673828125
2025-09-11 14:31:47.583,644936,-5.949591159820557,2.9544448852539062,6.1985883712768555,-0.0007993874605745077,0.004796324297785759,0.05062786862254143,35.974117279052734
2025-09-11 14:31:47.608,644956,-5.851428985595703,2.631227731704712,5.983109951019287,0.012790199369192123,0.0074609494768083096,0.021316997706890106,35.97999954223633
2025-09-11 14:31:47.617,644976,-5.918466567993164,2.669534921646118,6.028599739074707,0.0444992333650589,0.05142726004123688,-0.07194487005472183,35.97705841064453
2025-09-11 14:31:47.677,644996,-6.119579315185547,2.7916390895843506,6.088454723358154,0.0626186802983284,0.052759572863578796,-0.08047167211771011,35.97999954223633
2025-09-11 14:31:47.677,645016,-6.088454723358154,3.002328872680664,6.074089527130127,0.06155283376574516,0.02797855995595455,-0.051160797476768494,35.953529357910156
2025-09-11 14:31:47.693,645036,-6.114790916442871,2.9041666984558105,6.021417140960693,0.029044410213828087,0.01039203628897667,-0.02371516078710556,35.974117279052734
2025-09-11 14:31:47.705,645056,-5.901707172393799,2.9712042808532715,5.791574001312256,0.006128636654466391,0.0045298621989786625,-0.03757121041417122,35.95058822631836
2025-09-11 14:31:47.718,645076,-6.035782337188721,2.762908697128296,5.889736175537109,-0.07860642671585083,0.020517610013484955,-0.054624807089567184,35.94764709472656
2025-09-11 14:31:47.770,645096,-5.971138954162598,2.7724854946136475,5.904101371765137,-0.0791393592953682,0.029577335342764854,-0.08180397748947144,35.97705841064453
2025-09-11 14:31:47.770,645117,-5.985504150390625,2.7269957065582275,6.009446144104004,-0.07674118876457214,0.027712099254131317,-0.06634915620088577,35.965293884277344
2025-09-11 14:31:47.778,645137,-5.949591159820557,2.7030537128448486,6.14831018447876,-0.06714854389429092,0.04050229862332344,-0.05702297389507294,35.974117279052734
2025-09-11 14:31:47.801,645157,-6.030993938446045,2.7222073078155518,6.217741966247559,-0.024781011044979095,0.02158346027135849,-0.05142726004123688,35.965293884277344
2025-09-11 14:31:47.817,645177,-6.191405773162842,2.8850131034851074,6.296750545501709,-0.025580398738384247,0.023981623351573944,-0.03837059438228607,35.974117279052734
2025-09-11 14:31:47.872,645197,-6.1530985832214355,2.80361008644104,6.268020153045654,0.01252373680472374,0.008260336704552174,-0.045032158493995667,35.96823501586914
2025-09-11 14:31:47.873,645217,-6.016628742218018,2.674323320388794,6.157886981964111,0.02797855995595455,0.023448698222637177,-0.04343338683247566,35.98588180541992
2025-09-11 14:31:47.877,645237,-6.1985883712768555,2.6240451335906982,6.1770405769348145,0.06874731928110123,0.019984684884548187,-0.027712099254131317,35.97705841064453
2025-09-11 14:31:47.899,645257,-6.155492782592773,2.8443117141723633,6.026205539703369,0.07114548236131668,0.0189188364893198,-0.0023981621488928795,35.97117614746094
2025-09-11 14:31:47.918,645277,-5.944802761077881,2.7030537128448486,5.808333396911621,0.049828484654426575,0.05222664400935173,-0.0173200611025095,35.982940673828125
2025-09-11 14:31:47.982,645297,-6.145915985107422,2.8395233154296875,5.9519853591918945,0.014388973824679852,0.07967228442430496,-0.010924961417913437,35.95647048950195
2025-09-11 14:31:47.982,645317,-6.234501361846924,2.978386878967285,5.937620162963867,0.0010658499086275697,0.048496171832084656,0.005862174555659294,35.974117279052734
2025-09-11 14:31:47.982,645337,-6.165069580078125,2.5258827209472656,5.959167957305908,-0.01039203628897667,0.07221133261919022,0.0018652373692020774,35.98588180541992
2025-09-11 14:31:48.006,645357,-6.0597243309021,2.715024709701538,5.966350555419922,0.01678713597357273,0.05835527926683426,0.031176110729575157,35.965293884277344
2025-09-11 14:31:48.023,645377,-6.0621185302734375,2.8419175148010254,5.932831764221191,0.006928024813532829,0.05782235786318779,0.011724349111318588,35.98588180541992
2025-09-11 14:31:48.081,645397,-6.1770405769348145,2.832340717315674,5.990292549133301,-0.0005329249543137848,0.05302603542804718,-0.01678713597357273,35.991764068603516
2025-09-11 14:31:48.081,645417,-6.186617374420166,2.7700912952423096,5.944802761077881,-0.011990811675786972,0.038104135543107986,-0.019718224182724953,35.97117614746094
2025-09-11 14:31:48.081,645437,-6.167463779449463,2.7700912952423096,5.853823184967041,-0.02717917412519455,0.018652373924851418,0.01811944879591465,35.974117279052734
2025-09-11 14:31:48.097,645457,-6.0597243309021,2.7557260990142822,5.822698593139648,-0.045565083622932434,0.021849922835826874,0.023448698222637177,35.97999954223633
2025-09-11 14:31:48.117,645477,-6.1315507888793945,2.829946517944336,5.961562156677246,-0.04369984567165375,0.03490658476948738,0.04822970926761627,35.99470520019531
2025-09-11 14:31:48.141,645497,-6.232107162475586,2.7102363109588623,6.100425720214844,-0.035173047333955765,0.057555895298719406,0.06714854389429092,35.982940673828125
2025-09-11 14:31:48.183,645517,-6.260837554931641,2.6599581241607666,6.071695327758789,0.0074609494768083096,0.056756507605314255,0.10498622059822083,36.0035285949707
2025-09-11 14:31:48.183,645537,-6.107608318328857,2.7102363109588623,6.052541732788086,0.058888208121061325,0.054624807089567184,0.12656967341899872,35.98588180541992
2025-09-11 14:31:48.198,645558,-6.086060523986816,2.8778305053710938,5.918466567993164,0.05569066107273102,0.06315161287784576,0.11218070238828659,35.991764068603516
2025-09-11 14:31:48.237,645578,-6.09324312210083,2.96162748336792,5.861005783081055,0.02371516078710556,0.07327718287706375,0.08819908648729324,35.98882293701172
2025-09-11 14:31:48.246,645598,-6.086060523986816,2.9233202934265137,5.853823184967041,-0.021316997706890106,0.0791393592953682,0.0791393592953682,35.991764068603516
2025-09-11 14:31:48.284,645618,-6.320692539215088,2.7964274883270264,5.841852188110352,-0.029044410213828087,0.07833997160196304,0.10018989443778992,35.97705841064453
2025-09-11 14:31:48.284,645638,-6.224924564361572,2.693476915359497,5.74129581451416,-0.019185297191143036,0.05782235786318779,0.12417151778936386,35.97999954223633
2025-09-11 14:31:48.298,645658,-5.983109951019287,2.8874073028564453,5.717353820800781,-0.025580398738384247,0.05915467068552971,0.09619295597076416,35.982940673828125
2025-09-11 14:31:48.320,645678,-6.279991149902344,2.935291290283203,5.92325496673584,-0.0823369100689888,0.05862174555659294,0.06794793158769608,35.974117279052734
2025-09-11 14:31:48.346,645698,-6.1985883712768555,2.7724854946136475,5.995080947875977,-0.0791393592953682,0.04343338683247566,0.06315161287784576,35.97117614746094
2025-09-11 14:31:48.383,645718,-5.987898349761963,2.7222073078155518,6.069301128387451,-0.033840734511613846,0.04583154618740082,0.06554976850748062,35.97999954223633
2025-09-11 14:31:48.383,645738,-6.133944988250732,2.8395233154296875,6.167463779449463,-0.0015987749211490154,0.038104135543107986,0.05995405837893486,35.98588180541992
2025-09-11 14:31:48.398,645758,-5.904101371765137,3.0550012588500977,6.069301128387451,0.019185297191143036,0.013056661002337933,0.053292494267225266,35.982940673828125
2025-09-11 14:31:48.418,645778,-5.810727596282959,3.1052796840667725,6.0597243309021,-0.0037304747384041548,0.006661561783403158,0.03357427194714546,35.97117614746094
2025-09-11 14:31:48.440,645798,-5.849034786224365,2.9305028915405273,6.030993938446045,0.0005329249543137848,0.004263399634510279,-0.02584685944020748,35.98882293701172
2025-09-11 14:31:48.485,645818,-6.074089527130127,2.999934673309326,6.016628742218018,-0.018385911360383034,0.009592648595571518,-0.049828484654426575,35.982940673828125
2025-09-11 14:31:48.486,645838,-6.169857978820801,2.940079689025879,6.007051944732666,-0.00506278732791543,0.0037304747384041548,-0.030376723036170006,35.974117279052734
2025-09-11 14:31:48.499,645860,-6.045359134674072,2.8658595085144043,5.904101371765137,0.00799387414008379,0.005862174555659294,-0.0010658499086275697,35.96823501586914
2025-09-11 14:31:48.518,645879,-6.076483726501465,2.978386878967285,5.918466567993164,0.011724349111318588,0.010658498853445053,-0.016254210844635963,35.974117279052734
2025-09-11 14:31:48.539,645899,-6.191405773162842,2.913743495941162,5.896918773651123,-0.0007993874605745077,0.0013323123566806316,-0.03490658476948738,35.96823501586914
2025-09-11 14:31:48.594,645919,-6.016628742218018,2.8179752826690674,5.7341132164001465,-0.01119142398238182,0.015454824082553387,-0.05169371888041496,35.97117614746094
2025-09-11 14:31:48.594,645939,-6.191405773162842,2.7533318996429443,5.949591159820557,-0.03570597246289253,0.016254210844635963,-0.02371516078710556,35.974117279052734
2025-09-11 14:31:48.599,645959,-6.155492782592773,2.6455929279327393,5.937620162963867,0.02584685944020748,0.027445634827017784,0.0045298621989786625,35.97999954223633
2025-09-11 14:31:48.619,645979,-6.167463779449463,2.9065608978271484,5.913678169250488,0.03357427194714546,0.051160797476768494,0.012790199369192123,35.98588180541992
2025-09-11 14:31:48.644,645999,-6.22731876373291,2.6862943172454834,5.932831764221191,0.026646247133612633,0.06554976850748062,0.01012557465583086,35.991764068603516
2025-09-11 14:31:48.694,646019,-5.963956356048584,2.87064790725708,5.657498836517334,0.038637056946754456,0.06341806799173355,-0.011457886546850204,36.000587463378906
2025-09-11 14:31:48.694,646039,-6.440402507781982,2.9017724990844727,6.0597243309021,0.031176110729575157,0.07940581440925598,-0.00506278732791543,35.97117614746094
2025-09-11 14:31:48.699,646059,-6.212953567504883,2.9472622871398926,5.920860767364502,0.04689739644527435,0.04796324670314789,0.009326186962425709,35.98588180541992
2025-09-11 14:31:48.721,646079,-6.0621185302734375,3.0334534645080566,5.827486991882324,0.01811944879591465,0.052759572863578796,-0.006128636654466391,35.97999954223633
2025-09-11 14:31:48.739,646099,-6.160281181335449,3.155557870864868,5.9304375648498535,-0.03837059438228607,0.033041346818208694,0.02291577309370041,35.97705841064453
2025-09-11 14:31:48.796,646119,-6.212953567504883,2.8610711097717285,5.65031623840332,-0.11671055853366852,0.09246248006820679,-0.024514546617865562,35.991764068603516
2025-09-11 14:31:48.796,646139,-6.212953567504883,2.7700912952423096,5.901707172393799,-0.1414915770292282,-0.031176110729575157,0.024248085916042328,35.98882293701172
2025-09-11 14:31:48.799,646159,-6.258443355560303,2.6144683361053467,5.928043365478516,-0.05009494721889496,0.009592648595571518,0.006661561783403158,35.99470520019531
2025-09-11 14:31:48.819,646179,-6.236895561218262,2.911349296569824,5.959167957305908,-0.02584685944020748,0.03570597246289253,-0.008793261833488941,35.97999954223633
2025-09-11 14:31:48.840,646199,-6.246472358703613,2.851494312286377,5.906495571136475,-0.039969369769096375,0.06288514286279678,-0.04822970926761627,35.974117279052734
2025-09-11 14:31:48.896,646219,-6.270414352416992,2.8107926845550537,5.961562156677246,0.01598774828016758,0.07194487005472183,0.02105053700506687,35.98882293701172
2025-09-11 14:31:48.897,646239,-6.205770969390869,2.671929121017456,5.9304375648498535,0.030376723036170006,0.07594180852174759,0.0444992333650589,36.000587463378906
2025-09-11 14:31:48.898,646259,-6.050147533416748,2.964021682739258,5.69580602645874,0.038104135543107986,0.0756753459572792,0.00506278732791543,35.97705841064453
2025-09-11 14:31:48.918,646279,-6.229712963104248,2.846705913543701,5.980715751647949,0.009592648595571518,0.0626186802983284,-0.037304747849702835,35.97705841064453
2025-09-11 14:31:48.941,646301,-6.466738700866699,2.7269957065582275,6.074089527130127,0.03570597246289253,0.07647473365068436,0.0,35.99470520019531
2025-09-11 14:31:49.006,646320,-6.270414352416992,2.8155810832977295,5.789179801940918,0.04023583605885506,0.10845022648572922,0.018385911360383034,35.982940673828125
2025-09-11 14:31:49.006,646340,-6.268020153045654,2.827552318572998,5.791574001312256,0.0053292494267225266,0.12443797290325165,0.0023981621488928795,35.97705841064453
2025-09-11 14:31:49.006,646360,-6.301538944244385,2.8347349166870117,5.78678560256958,0.02078407257795334,0.12044104188680649,0.014921898953616619,35.98588180541992
2025-09-11 14:31:49.033,646380,-6.423643112182617,2.892195701599121,5.880159378051758,0.031176110729575157,0.13056661188602448,0.022116385400295258,35.982940673828125
2025-09-11 14:31:49.039,646400,-6.186617374420166,2.913743495941162,5.810727596282959,0.05622358247637749,0.14735375344753265,0.037304747849702835,35.974117279052734
2025-09-11 14:31:49.060,646420,-6.100425720214844,2.942473888397217,5.834669589996338,0.027445634827017784,0.1548146903514862,-0.011724349111318588,35.97705841064453
2025-09-11 14:31:49.100,646440,-6.289567947387695,2.8562827110290527,5.8442463874816895,0.05062786862254143,0.15454822778701782,-0.0444992333650589,35.98882293701172
2025-09-11 14:31:49.100,646460,-6.392518520355225,2.8610711097717285,5.987898349761963,0.10605207085609436,0.15534763038158417,-0.045565083622932434,35.99764633178711
2025-09-11 14:31:49.119,646480,-6.196194171905518,2.7724854946136475,5.834669589996338,0.11271363496780396,0.18812249600887299,-0.04663093388080597,35.982940673828125
2025-09-11 14:31:49.139,646500,-6.382941722869873,2.717418909072876,5.52821159362793,0.10738438367843628,0.2057090401649475,-0.04743032157421112,35.98882293701172
2025-09-11 14:31:49.159,646520,-6.708553314208984,2.8443117141723633,5.547365188598633,0.11004900932312012,0.19824808835983276,-0.04716385900974274,35.97999954223633
2025-09-11 14:31:49.203,646540,-6.543353080749512,2.896984100341797,5.477933406829834,0.09699234366416931,0.17346706986427307,0.022116385400295258,36.000587463378906
2025-09-11 14:31:49.203,646560,-6.552929878234863,3.155557870864868,5.406107425689697,0.08153752237558365,0.11644410341978073,0.0543583482503891,35.982940673828125
2025-09-11 14:31:49.234,646580,-6.517016887664795,3.071760892868042,5.238513469696045,0.007194486912339926,0.03250842168927193,-0.011990811675786972,35.97117614746094
2025-09-11 14:31:49.252,646600,-6.172252178192139,3.045424461364746,5.446808815002441,-0.051160797476768494,-0.0013323123566806316,-0.10312097519636154,35.974117279052734
2025-09-11 14:31:49.315,646620,-6.232107162475586,3.0119056701660156,5.66228723526001,-0.09592649340629578,-0.05222664400935173,-0.19211943447589874,35.974117279052734
2025-09-11 14:31:49.315,646640,-6.320692539215088,2.999934673309326,5.659893035888672,-0.12816844880580902,-0.07514242082834244,-0.23821745812892914,35.97705841064453
2025-09-11 14:31:49.316,646660,-6.3949127197265625,2.7533318996429443,5.710171222686768,-0.08606737852096558,-0.05489126965403557,-0.20517610013484955,35.991764068603516
2025-09-11 14:31:49.325,646680,-6.818686485290527,2.7988216876983643,5.796362400054932,0.014921898953616619,-0.0173200611025095,-0.09539356082677841,35.98588180541992
2025-09-11 14:31:49.348,646700,-6.53377628326416,2.6671407222747803,5.497087001800537,0.069280244410038,0.01012557465583086,-0.031709033995866776,35.97705841064453
2025-09-11 14:31:49.359,646720,-6.813898086547852,2.0470423698425293,5.336675643920898,0.02291577309370041,0.21157120168209076,-0.057555895298719406,35.96235275268555
2025-09-11 14:31:49.407,646741,-6.936002254486084,2.580949544906616,5.341464042663574,0.03197549656033516,0.2224961668252945,0.05382541939616203,35.974117279052734
2025-09-11 14:31:49.407,646761,-6.57926607131958,2.942473888397217,5.114014625549316,-0.009059724397957325,0.1284349113702774,0.07381010800600052,35.99764633178711
2025-09-11 14:31:49.420,646781,-6.670246124267578,2.827552318572998,5.341464042663574,-0.08819908648729324,0.054091885685920715,0.008793261833488941,35.991764068603516
2025-09-11 14:31:49.441,646801,-6.536170482635498,2.6168625354766846,5.4659624099731445,-0.08313629031181335,0.02717917412519455,0.009592648595571518,35.982940673828125
2025-09-11 14:31:49.465,646821,-6.62236213684082,2.6647465229034424,5.640739440917969,-0.0543583482503891,0.06181929633021355,0.06395099312067032,35.991764068603516
2025-09-11 14:31:49.513,646841,-6.528987884521484,2.8347349166870117,5.638344764709473,-0.014921898953616619,0.13216538727283478,0.07434303313493729,35.991764068603516
2025-09-11 14:31:49.513,646861,-6.440402507781982,2.9161376953125,5.5545477867126465,-0.02371516078710556,0.16227564215660095,-0.019984684884548187,35.98588180541992
2025-09-11 14:31:49.525,646881,-6.596025466918945,2.8107926845550537,5.60722017288208,-0.014655436389148235,0.22196324169635773,-0.08953139185905457,36.000587463378906
2025-09-11 14:31:49.542,646901,-6.8162922859191895,2.5019407272338867,5.659893035888672,0.0023981621488928795,0.26086676120758057,-0.08180397748947144,36.0035285949707
2025-09-11 14:31:49.564,646921,-6.840234279632568,2.5929205417633057,5.535394191741943,0.04156814515590668,0.2832496166229248,-0.03890352323651314,35.98882293701172
2025-09-11 14:31:49.616,646941,-6.734889507293701,2.873042106628418,5.3127336502075195,0.03224195912480354,0.29897087812423706,-0.045032158493995667,36.012351989746094
2025-09-11 14:31:49.616,646961,-6.806715488433838,2.6791117191314697,5.197812080383301,-0.04369984567165375,0.2254272699356079,-0.0642174556851387,35.97705841064453
2025-09-11 14:31:49.620,646981,-6.72531270980835,2.7246015071868896,5.252878665924072,-0.0642174556851387,0.2190321683883667,-0.06954670697450638,35.991764068603516
2025-09-11 14:31:49.643,647001,-6.8162922859191895,2.801215887069702,5.317522048950195,-0.0378376729786396,0.2208973914384842,-0.10232159495353699,35.99470520019531
2025-09-11 14:31:49.661,647021,-6.809109687805176,2.6168625354766846,5.3127336502075195,-0.03224195912480354,0.1859908103942871,-0.12630322575569153,35.991764068603516
2025-09-11 14:31:49.718,647043,-6.921637058258057,2.585737943649292,5.25527286529541,-0.05382541939616203,0.15454822778701782,-0.15508116781711578,35.97705841064453
2025-09-11 14:31:49.719,647062,-6.885724067687988,2.58813214302063,5.094861030578613,-0.07194487005472183,0.14522205293178558,-0.17852985858917236,35.97999954223633
2025-09-11 14:31:49.722,647082,-6.947973251342773,2.425326347351074,5.16429328918457,-0.03570597246289253,0.1529494673013687,-0.18812249600887299,35.98882293701172
2025-09-11 14:31:49.746,647102,-7.079654216766357,2.494758129119873,5.094861030578613,-0.011724349111318588,0.16041041910648346,-0.1268361359834671,35.98588180541992
2025-09-11 14:31:49.762,647122,-6.9695210456848145,2.4468741416931152,5.147533416748047,-0.019185297191143036,0.13136599957942963,-0.028777947649359703,36.000587463378906
2025-09-11 14:31:49.821,647142,-6.866570472717285,2.451662540435791,5.011064052581787,-0.0005329249543137848,0.14442266523838043,-0.016254210844635963,35.98882293701172
2025-09-11 14:31:49.821,647162,-6.950367450714111,2.5474305152893066,4.975151062011719,-0.029044410213828087,0.13136599957942963,-0.09459418058395386,35.98588180541992
2025-09-11 14:31:49.821,647182,-6.9910688400268555,2.5043349266052246,5.013458251953125,-0.06768146902322769,0.09486064314842224,-0.17053598165512085,35.99764633178711
2025-09-11 14:31:49.842,647202,-7.0557122230529785,2.4420857429504395,5.020640850067139,-0.06341806799173355,0.05835527926683426,-0.19211943447589874,35.97999954223633
2025-09-11 14:31:49.868,647222,-7.072471618652344,2.2385785579681396,5.173870086669922,0.03064318373799324,0.0543583482503891,-0.0905972421169281,35.98588180541992
2025-09-11 14:31:49.924,647242,-6.871358871459961,2.4851813316345215,4.903325080871582,0.02584685944020748,0.08340275287628174,0.0034640124067664146,35.991764068603516
2025-09-11 14:31:49.924,647262,-6.967126846313477,2.6384103298187256,5.0685248374938965,-0.07754058390855789,0.10285452008247375,-0.12656967341899872,35.99764633178711
2025-09-11 14:31:49.924,647282,-7.1921820640563965,2.3271639347076416,5.169081687927246,-0.15374885499477386,0.12257273495197296,-0.2555375099182129,36.000587463378906
2025-09-11 14:31:49.950,647302,-7.295132637023926,2.1811177730560303,5.262455463409424,-0.06368453055620193,0.20011331140995026,-0.21983154118061066,35.98588180541992
2025-09-11 14:31:49.978,647322,-7.105990409851074,2.2194249629974365,5.049371242523193,0.02717917412519455,0.2851148545742035,-0.09192955493927002,35.982940673828125
2025-09-11 14:31:50.026,647342,-7.295132637023926,2.3511061668395996,4.965574264526367,0.12443797290325165,0.3016355037689209,0.025313934311270714,35.98588180541992
2025-09-11 14:31:50.026,647362,-7.249642848968506,2.3032219409942627,4.570530891418457,0.13722817599773407,0.2574027478694916,0.013589587062597275,35.98882293701172
2025-09-11 14:31:50.026,647382,-7.347805023193359,1.965639591217041,4.730942726135254,0.022649310529232025,0.15534763038158417,-0.045565083622932434,35.99764633178711
2025-09-11 14:31:50.042,647402,-7.481880187988281,1.9728221893310547,5.171475887298584,0.12736906111240387,0.1761316955089569,0.08633384108543396,36.0035285949707
2025-09-11 14:31:50.069,647422,-6.9240312576293945,2.695871114730835,4.546588897705078,0.24781009554862976,0.22782541811466217,0.19958040118217468,35.99764633178711
2025-09-11 14:31:50.086,647442,-6.888118267059326,2.782062292098999,4.1156325340271,0.1779969334602356,0.16520673036575317,-0.10605207085609436,35.99764633178711
2025-09-11 14:31:50.128,647462,-7.479485988616943,1.7860745191574097,4.982333660125732,0.08500153571367264,0.014122511260211468,-0.12656967341899872,36.012351989746094
2025-09-11 14:31:50.128,647483,-7.429207801818848,2.2457611560821533,5.118803024291992,0.05489126965403557,-0.05169371888041496,0.030110260471701622,35.98588180541992
2025-09-11 14:31:50.143,647503,-7.383718013763428,2.494758129119873,4.49870491027832,0.16440735757350922,-0.012257273308932781,-0.05222664400935173,35.98588180541992
2025-09-11 14:31:50.163,647523,-7.321468830108643,2.250549554824829,4.412513732910156,0.2952404320240021,0.05728943273425102,-0.11138132214546204,35.99764633178711
2025-09-11 14:31:50.194,647543,-7.340622425079346,2.2625205516815186,4.469974517822266,0.2637978494167328,0.01945176161825657,-0.055424198508262634,35.982940673828125
2025-09-11 14:31:50.232,647563,-7.752425193786621,2.0590133666992188,5.178658485412598,0.21716691553592682,-0.010658498853445053,0.1252373605966568,35.98588180541992
2025-09-11 14:31:50.232,647583,-6.01423454284668,3.0861260890960693,6.016628742218018,0.31895557045936584,-0.1103154644370079,0.32535070180892944,36.000587463378906
2025-09-11 14:31:50.244,647603,-7.663839817047119,3.2609026432037354,6.404489517211914,0.2755222022533417,-0.11910872906446457,0.36292192339897156,35.99470520019531
2025-09-11 14:31:50.263,647623,-8.913613319396973,3.3925838470458984,3.335123062133789,-0.0005329249543137848,0.28564777970314026,0.5054793357849121,36.012351989746094
2025-09-11 14:31:50.297,647643,-8.037335395812988,2.123656988143921,4.244919776916504,0.12656967341899872,0.2222297042608261,0.4551179111003876,36.01823425292969
2025-09-11 14:31:50.334,647663,-6.311115741729736,4.1395745277404785,3.799597978591919,0.04343338683247566,0.27125880122184753,0.10525267571210861,35.982940673828125
2025-09-11 14:31:50.334,647683,-6.7492547035217285,4.156333923339844,4.050989151000977,-0.24514546990394592,-0.015721285715699196,-0.7964563369750977,35.98882293701172
2025-09-11 14:31:50.343,647703,-8.315062522888184,0.8403648138046265,4.6471452713012695,-0.23182235658168793,-0.14948543906211853,-0.7495589256286621,35.99470520019531
2025-09-11 14:31:50.362,647723,-8.250418663024902,0.7110779285430908,4.8482584953308105,0.014122511260211468,-0.08926492929458618,0.16680550575256348,35.99470520019531
2025-09-11 14:31:50.383,647743,-7.196970462799072,2.518700122833252,4.774038314819336,0.16733844578266144,0.07780704647302628,0.7245115041732788,35.98588180541992
2025-09-11 14:31:50.436,647763,-6.845022678375244,3.337517261505127,4.4723687171936035,0.02504747360944748,0.131632462143898,0.25420519709587097,35.991764068603516
2025-09-11 14:31:50.436,647783,-7.201758861541748,2.9089550971984863,4.58968448638916,0.008260336704552174,0.06528330594301224,0.01598774828016758,35.97999954223633
2025-09-11 14:31:50.442,647803,-7.189787864685059,2.8993782997131348,4.594472885131836,-0.0005329249543137848,0.1582787185907364,0.045565083622932434,35.99470520019531
2025-09-11 14:31:50.462,647823,-7.338228225708008,2.513911724090576,4.879383087158203,0.07647473365068436,0.4148820638656616,0.12470444291830063,35.97999954223633
2025-09-11 14:31:50.484,647843,-7.3885064125061035,2.389413356781006,4.754884719848633,0.1862572729587555,0.47536906599998474,0.14282388985157013,35.97705841064453
2025-09-11 14:31:50.539,647863,-7.371747016906738,2.8203697204589844,3.8355112075805664,0.10631853342056274,0.2043767273426056,-0.059687595814466476,35.99470520019531
2025-09-11 14:31:50.539,647883,-7.448361396789551,2.832340717315674,3.8331170082092285,-0.029044410213828087,-0.12257273495197296,-0.1433568149805069,35.991764068603516
2025-09-11 14:31:50.543,647903,-7.3885064125061035,2.8778305053710938,4.304774761199951,-0.09166309237480164,-0.2813843786716461,-0.12044104188680649,35.991764068603516
2025-09-11 14:31:50.566,647924,-7.292738437652588,2.58813214302063,4.637568473815918,-0.05515773221850395,-0.2928422689437866,0.00506278732791543,35.99470520019531
2025-09-11 14:31:50.584,647944,-7.429207801818848,2.300827741622925,4.702212333679199,-0.006661561783403158,-0.24248084425926208,0.09752526879310608,35.991764068603516
2025-09-11 14:31:50.651,647964,-7.558494567871094,2.343923568725586,4.599261283874512,0.038637056946754456,-0.19398468732833862,0.2025114744901657,35.99470520019531
2025-09-11 14:31:50.651,647984,-7.2568254470825195,2.497152328491211,4.400542736053467,-0.04263399541378021,-0.2672618627548218,0.31362631916999817,36.0035285949707
2025-09-11 14:31:50.651,648004,-7.19936466217041,2.9041666984558105,4.32871675491333,-0.18146096169948578,-0.42927104234695435,0.33894026279449463,36.0094108581543
2025-09-11 14:31:50.667,648024,-7.084442615509033,2.801215887069702,4.271255970001221,-0.25100764632225037,-0.48176416754722595,0.21503522992134094,35.991764068603516
2025-09-11 14:31:50.687,648044,-6.9910688400268555,2.7724854946136475,5.243301868438721,-0.32694944739341736,-0.4759019911289215,0.17240123450756073,35.991764068603516
2025-09-11 14:31:50.743,648064,-7.436390399932861,2.1787235736846924,5.623979568481445,-0.24807657301425934,-0.21716691553592682,0.31575801968574524,35.96823501586914
2025-09-11 14:31:50.743,648084,-6.957550048828125,2.6408045291900635,5.238513469696045,-0.19318529963493347,0.014921898953616619,0.43406739830970764,35.98882293701172
2025-09-11 14:31:50.743,648104,-7.06528902053833,3.5482068061828613,4.967968463897705,-0.2323552817106247,0.09539356082677841,0.3906340003013611,35.98588180541992
2025-09-11 14:31:50.766,648124,-7.108384609222412,3.507505416870117,4.78122091293335,-0.30430012941360474,0.11218070238828659,0.2797856032848358,35.99764633178711
2025-09-11 14:31:50.784,648144,-7.026981830596924,3.3638534545898438,4.60165548324585,-0.30723124742507935,0.022116385400295258,0.11884226649999619,35.97705841064453
2025-09-11 14:31:50.845,648164,-7.223306655883789,3.1531636714935303,4.525041103363037,-0.3229525089263916,-0.1649402678012848,-0.005862174555659294,35.96823501586914
2025-09-11 14:31:50.845,648184,-7.309497833251953,2.920926094055176,4.666299343109131,-0.5028147101402283,-0.4367320239543915,-0.029044410213828087,35.982940673828125
2025-09-11 14:31:50.845,648204,-7.158663272857666,2.8562827110290527,4.829104900360107,-0.7732741236686707,-0.7090566754341125,-0.10765083879232407,35.991764068603516
2025-09-11 14:31:50.865,648226,-6.823474884033203,2.5019407272338867,5.353435039520264,-0.9166309237480164,-0.9022419452667236,-0.02584685944020748,35.982940673828125
2025-09-11 14:31:50.887,648245,-6.22731876373291,2.473210334777832,5.461174011230469,-0.8324287533760071,-0.9336844682693481,-0.008526799269020557,35.98588180541992
2025-09-11 14:31:50.948,648265,-6.31829833984375,2.4899697303771973,5.913678169250488,-0.728774905204773,-0.9222266674041748,0.03970290720462799,35.99764633178711
2025-09-11 14:31:50.949,648285,-6.449979305267334,2.2242133617401123,6.2632317543029785,-0.5912802219390869,-0.8937152028083801,0.058088820427656174,35.99470520019531
2025-09-11 14:31:50.949,648305,-6.016628742218018,2.0159177780151367,6.270414352416992,-0.5627687573432922,-0.8593415021896362,0.054091885685920715,35.991764068603516
2025-09-11 14:31:50.964,648325,-6.021417140960693,1.9081788063049316,5.992686748504639,-0.49641960859298706,-0.7282419204711914,0.01811944879591465,35.97117614746094
2025-09-11 14:31:50.984,648345,-6.31829833984375,1.8363527059555054,6.095637321472168,-0.4892251193523407,-0.7490260601043701,0.1500183790922165,35.97705841064453
2025-09-11 14:31:51.004,648365,-6.179434776306152,2.0446481704711914,6.234501361846924,-0.45245328545570374,-0.6832097768783569,0.2699264883995056,35.98588180541992
2025-09-11 14:31:51.049,648385,-6.402095317840576,2.741360902786255,6.380547523498535,-0.49348852038383484,-0.7186492681503296,0.30856356024742126,35.982940673828125
2025-09-11 14:31:51.049,648405,-5.729324817657471,1.766920804977417,6.756437301635742,-0.5651669502258301,-0.784199059009552,0.24328024685382843,35.991764068603516
2025-09-11 14:31:51.073,648425,-5.130774021148682,1.886630892753601,6.8043212890625,-0.4945543706417084,-0.7762051820755005,0.24754364788532257,35.99470520019531
2025-09-11 14:31:51.084,648445,-5.370194435119629,1.9273324012756348,7.0341644287109375,-0.4668422341346741,-0.745029091835022,0.22329555451869965,35.99764633178711
2025-09-11 14:31:51.107,648465,-4.788403511047363,1.5155296325683594,7.307103633880615,-0.4314027726650238,-0.6030045747756958,0.19691577553749084,35.98588180541992
2025-09-11 14:31:51.152,648485,-4.347870349884033,1.5969325304031372,7.46033239364624,-0.2323552817106247,-0.3818407356739044,0.20810718834400177,35.98882293701172
2025-09-11 14:31:51.156,648505,-4.436455726623535,1.6879122257232666,7.594407558441162,-0.13536293804645538,-0.18172740936279297,0.1875895857810974,35.99470520019531
2025-09-11 14:31:51.166,648525,-4.855441093444824,1.6208745241165161,7.642292022705078,-0.0642174556851387,0.0010658499086275697,0.16200919449329376,35.98588180541992
2025-09-11 14:31:51.186,648545,-4.965574264526367,1.7381904125213623,7.441178798675537,0.054091885685920715,0.1430903524160385,0.17399999499320984,35.97999954223633
2025-09-11 14:31:51.204,648565,-5.078101634979248,1.9273324012756348,7.333439826965332,0.11937519162893295,0.2504747211933136,0.18732312321662903,35.99470520019531
2025-09-11 14:31:51.255,648585,-5.169081687927246,2.0470423698425293,7.146692276000977,0.15428178012371063,0.3176232576370239,0.19531700015068054,35.99764633178711
2025-09-11 14:31:51.255,648605,-5.17626428604126,2.1523873805999756,6.926425457000732,0.1763981729745865,0.3114946484565735,0.20197856426239014,35.98588180541992
2025-09-11 14:31:51.265,648625,-5.3797712326049805,2.0159177780151367,6.876147270202637,0.16893720626831055,0.2787197530269623,0.1862572729587555,35.991764068603516
2025-09-11 14:31:51.288,648645,-5.430049419403076,2.0877439975738525,6.696582317352295,0.1382940262556076,0.19158652424812317,0.16414088010787964,35.97999954223633
2025-09-11 14:31:51.306,648667,-5.384559631347656,2.1523873805999756,6.7492547035217285,0.0905972421169281,0.10258805006742477,0.13696171343326569,35.99764633178711
2025-09-11 14:31:51.355,648686,-5.377377033233643,2.2218191623687744,6.794744491577148,0.035972435027360916,0.04396630823612213,0.11724349111318588,36.000587463378906
2025-09-11 14:31:51.355,648706,-5.339069843292236,2.1595699787139893,6.919242858886719,0.02584685944020748,0.028777947649359703,0.13296477496623993,35.99470520019531
2025-09-11 14:31:51.365,648726,-5.396530628204346,2.185906171798706,6.92881965637207,0.04396630823612213,0.02291577309370041,0.158012256026268,35.96823501586914
2025-09-11 14:31:51.392,648746,-5.410895824432373,2.3056161403656006,6.909666061401367,0.045565083622932434,0.01012557465583086,0.14628790318965912,36.0094108581543
2025-09-11 14:31:51.407,648766,-5.3797712326049805,2.3056161403656006,6.900089263916016,0.022116385400295258,-0.0010658499086275697,0.09486064314842224,36.01529312133789
2025-09-11 14:31:51.455,648786,-5.327098846435547,2.2361843585968018,6.864176273345947,0.017053598538041115,-0.011990811675786972,0.06714854389429092,36.0035285949707
2025-09-11 14:31:51.455,648806,-5.3127336502075195,2.2409727573394775,6.866570472717285,0.01119142398238182,-0.02078407257795334,0.07700765877962112,35.991764068603516
2025-09-11 14:31:51.466,648826,-5.286397457122803,2.3032219409942627,6.89530086517334,0.013856049627065659,-0.022649310529232025,0.10471975803375244,36.0094108581543
2025-09-11 14:31:51.490,648846,-5.281609058380127,2.2864625453948975,6.897695064544678,0.0023981621488928795,-0.019984684884548187,0.11937519162893295,35.99470520019531
2025-09-11 14:31:51.506,648866,-5.274426460266113,2.2649147510528564,6.916848659515381,0.006128636654466391,-0.00506278732791543,0.11750995367765427,35.98882293701172
2025-09-11 14:31:51.561,648886,-5.260061264038086,2.3487119674682617,7.007828235626221,0.0173200611025095,0.011724349111318588,0.09192955493927002,35.982940673828125
2025-09-11 14:31:51.561,648906,-5.224148273468018,2.346317768096924,7.0126166343688965,0.03916998580098152,0.03890352323651314,0.062352221459150314,35.991764068603516
2025-09-11 14:31:51.566,648926,-5.219359874725342,2.3319525718688965,6.988674640655518,0.06341806799173355,0.07594180852174759,0.06501684337854385,36.0064697265625
2025-09-11 14:31:51.589,648946,-5.281609058380127,2.382230758666992,6.971915245056152,0.0855344608426094,0.11111485213041306,0.09352833032608032,35.98882293701172
2025-09-11 14:31:51.605,648966,-5.360617637634277,2.403778553009033,6.92881965637207,0.09246248006820679,0.13935987651348114,0.11457886546850204,35.98588180541992
2025-09-11 14:31:51.662,648986,-5.351040840148926,2.3582887649536133,6.821080684661865,0.08526799082756042,0.13562940061092377,0.11644410341978073,35.99470520019531
2025-09-11 14:31:51.662,649006,-5.353435039520264,2.4636335372924805,6.809109687805176,0.07540887594223022,0.12923429906368256,0.11404594779014587,35.991764068603516
2025-09-11 14:31:51.665,649026,-5.34625244140625,2.5522189140319824,6.806715488433838,0.0559571199119091,0.11298009008169174,0.09672587364912033,35.98588180541992
2025-09-11 14:31:51.686,649046,-5.363011837005615,2.5689783096313477,6.7492547035217285,0.037304747849702835,0.09832465648651123,0.08526799082756042,35.99470520019531
2025-09-11 14:31:51.713,649066,-5.374982833862305,2.5785553455352783,6.7492547035217285,0.022649310529232025,0.0807381272315979,0.0740765631198883,35.991764068603516
2025-09-11 14:31:51.781,649086,-5.370194435119629,2.518700122833252,6.7492547035217285,0.009326186962425709,0.0708790197968483,0.054624807089567184,36.000587463378906
2025-09-11 14:31:51.781,649107,-5.389348030090332,2.5043349266052246,6.754043102264404,0.006128636654466391,0.061019908636808395,0.04236753284931183,35.98882293701172
2025-09-11 14:31:51.781,649126,-5.406107425689697,2.5091233253479004,6.754043102264404,0.007194486912339926,0.04796324670314789,0.03570597246289253,36.0035285949707
2025-09-11 14:31:51.785,649146,-5.4013190269470215,2.540247917175293,6.744466304779053,0.0053292494267225266,0.038104135543107986,0.03890352323651314,36.0035285949707
2025-09-11 14:31:51.813,649166,-5.372588634490967,2.585737943649292,6.734889507293701,0.006128636654466391,0.029577335342764854,0.042900457978248596,35.99764633178711
2025-09-11 14:31:51.864,649186,-5.3797712326049805,2.604891538619995,6.7277069091796875,-0.005862174555659294,0.019984684884548187,0.025580398738384247,35.98882293701172
2025-09-11 14:31:51.864,649206,-5.382165431976318,2.540247917175293,6.761225700378418,-0.018652373924851418,0.009326186962425709,0.0023981621488928795,35.99764633178711
2025-09-11 14:31:51.864,649226,-5.382165431976318,2.5067291259765625,6.789956092834473,-0.01811944879591465,0.009592648595571518,-0.0074609494768083096,35.98588180541992
2025-09-11 14:31:51.886,649247,-5.351040840148926,2.4851813316345215,6.777985095977783,-0.01252373680472374,0.01678713597357273,-0.005862174555659294,35.98882293701172
2025-09-11 14:31:51.906,649266,-5.386953830718994,2.5498247146606445,6.821080684661865,0.0021316998172551394,0.025313934311270714,0.0021316998172551394,36.0094108581543
2025-09-11 14:31:51.934,649286,-5.408501625061035,2.5546131134033203,6.780379295349121,0.007727412041276693,0.035972435027360916,0.014921898953616619,35.98882293701172
2025-09-11 14:31:51.967,649306,-5.410895824432373,2.537853717803955,6.785167694091797,0.015188361518085003,0.04663093388080597,0.022649310529232025,35.98588180541992
2025-09-11 14:31:51.967,649326,-5.396530628204346,2.5258827209472656,6.75883150100708,0.022649310529232025,0.05622358247637749,0.028245022520422935,35.98882293701172
2025-09-11 14:31:51.986,649346,-5.394136428833008,2.542642116546631,6.746860504150391,0.019718224182724953,0.05222664400935173,0.024781011044979095,36.000587463378906
2025-09-11 14:31:52.006,649366,-5.377377033233643,2.5761611461639404,6.7708024978637695,0.01119142398238182,0.0460980087518692,0.011990811675786972,35.99470520019531
2025-09-11 14:31:52.071,649386,-5.374982833862305,2.585737943649292,6.72531270980835,0.007194486912339926,0.045032158493995667,0.0002664624771568924,35.97117614746094
2025-09-11 14:31:52.071,649406,-5.4013190269470215,2.607285737991333,6.718130111694336,0.009592648595571518,0.04822970926761627,-0.0074609494768083096,35.98588180541992
2025-09-11 14:31:52.071,649426,-5.434837818145752,2.557007312774658,6.6846113204956055,0.009592648595571518,0.04343338683247566,-0.0023981621488928795,36.000587463378906
2025-09-11 14:31:52.086,649446,-5.434837818145752,2.5258827209472656,6.737283706665039,0.015188361518085003,0.0362388975918293,0.013323123566806316,35.98882293701172
2025-09-11 14:31:52.106,649466,-5.389348030090332,2.5282769203186035,6.722918510437012,0.013856049627065659,0.02931087277829647,0.017586523666977882,35.991764068603516
2025-09-11 14:31:52.126,649486,-5.461174011230469,2.604891538619995,6.6846113204956055,0.0074609494768083096,0.020517610013484955,0.021316997706890106,35.99470520019531
2025-09-11 14:31:52.173,649506,-5.4228668212890625,2.5953147411346436,6.708553314208984,-0.0005329249543137848,0.011457886546850204,0.022649310529232025,36.0035285949707
2025-09-11 14:31:52.173,649526,-5.427655220031738,2.564189910888672,6.71334171295166,-0.0021316998172551394,0.014122511260211468,0.02584685944020748,35.974117279052734
2025-09-11 14:31:52.186,649546,-5.432443618774414,2.5330653190612793,6.746860504150391,0.0023981621488928795,0.021316997706890106,0.02717917412519455,35.97999954223633
2025-09-11 14:31:52.205,649566,-5.427655220031738,2.5522189140319824,6.7277069091796875,0.008260336704552174,0.030110260471701622,0.022116385400295258,35.982940673828125
2025-09-11 14:31:52.225,649586,-5.351040840148926,2.669534921646118,6.651092529296875,0.011724349111318588,0.03757121041417122,0.013856049627065659,35.98882293701172
2025-09-11 14:31:52.283,649606,-5.480327606201172,2.5689783096313477,6.703764915466309,0.011990811675786972,0.033041346818208694,0.02797855995595455,36.0035285949707
2025-09-11 14:31:52.283,649626,-5.489904403686523,2.58813214302063,6.7061591148376465,0.025580398738384247,0.04210107401013374,0.03677182272076607,36.01823425292969
2025-09-11 14:31:52.287,649646,-5.451597213745117,2.607285737991333,6.66785192489624,0.013056661002337933,0.030110260471701622,0.03916998580098152,36.0094108581543
2025-09-11 14:31:52.307,649666,-5.461174011230469,2.628833532333374,6.687005519866943,0.010924961417913437,0.030110260471701622,0.028777947649359703,35.99470520019531
2025-09-11 14:31:52.327,649687,-5.446808815002441,2.5977089405059814,6.677428722381592,0.008260336704552174,0.026912709698081017,0.01945176161825657,35.982940673828125
2025-09-11 14:31:52.378,649707,-5.4659624099731445,2.6024973392486572,6.698976516723633,0.010658498853445053,0.028245022520422935,0.021849922835826874,35.991764068603516
2025-09-11 14:31:52.378,649727,-5.453991413116455,2.6144683361053467,6.67982292175293,0.0074609494768083096,0.027712099254131317,0.027445634827017784,35.97705841064453
2025-09-11 14:31:52.386,649747,-5.449203014373779,2.6455929279327393,6.677428722381592,0.0023981621488928795,0.020517610013484955,0.030909648165106773,36.0064697265625
2025-09-11 14:31:52.407,649767,-5.434837818145752,2.6216509342193604,6.675034523010254,-0.009059724397957325,0.014388973824679852,0.02291577309370041,35.99764633178711
2025-09-11 14:31:52.427,649787,-5.434837818145752,2.631227731704712,6.675034523010254,-0.009059724397957325,0.014655436389148235,0.023981623351573944,35.99764633178711
2025-09-11 14:31:52.481,649807,-5.449203014373779,2.6144683361053467,6.6846113204956055,-0.008260336704552174,0.017852986231446266,0.022649310529232025,35.99764633178711
2025-09-11 14:31:52.481,649827,-5.430049419403076,2.6455929279327393,6.710947513580322,-0.00559571199119091,0.0189188364893198,0.02584685944020748,35.991764068603516
2025-09-11 14:31:52.487,649847,-5.4444146156311035,2.647987127304077,6.660669326782227,-0.013323123566806316,0.019984684884548187,0.022116385400295258,35.99764633178711
2025-09-11 14:31:52.511,649867,-5.453991413116455,2.585737943649292,6.672640323638916,-0.013589587062597275,0.017053598538041115,0.026912709698081017,35.98588180541992
2025-09-11 14:31:52.527,649887,-5.47075080871582,2.655169725418091,6.67982292175293,-0.013056661002337933,0.01039203628897667,0.030909648165106773,35.982940673828125
2025-09-11 14:31:52.586,649907,-5.453991413116455,2.6647465229034424,6.730101108551025,-0.015454824082553387,0.008793261833488941,0.026113322004675865,35.982940673828125
2025-09-11 14:31:52.586,649927,-5.458779811859131,2.6431987285614014,6.658275127410889,-0.01945176161825657,0.005862174555659294,0.01811944879591465,35.98588180541992
2025-09-11 14:31:52.586,649947,-5.458779811859131,2.6216509342193604,6.694188117980957,-0.016520673409104347,0.008260336704552174,0.017586523666977882,35.98588180541992
2025-09-11 14:31:52.607,649967,-5.434837818145752,2.6001031398773193,6.701370716094971,-0.0053292494267225266,0.016520673409104347,0.024248085916042328,35.96823501586914
